time,seconds_elapsed,z,y,x
1789130050700236300,0.106236328125,5.765237808227539,7.661445617675781,-2.3127987384796143
1789130050716244000,0.122243896484375,5.827486991882324,7.632715225219727,-2.1499931812286377
1789130050732251100,0.138251220703125,5.928043365478516,7.570465564727783,-2.1356279850006104
1789130050748257000,0.154257080078125,5.74129581451416,7.6566572189331055,-2.126051187515259
1789130050764264400,0.170264404296875,5.60722017288208,7.704541206359863,-2.0877439975738525
1789130050780273400,0.1862734375,5.7125654220581055,7.637503623962402,-2.2409727573394775
1789130050796283400,0.202283447265625,5.683835029602051,7.479485988616943,-2.1930887699127197
1789130050812292600,0.218292724609375,5.851428985595703,7.3885064125061035,-2.22660756111145
1789130050828304000,0.234303955078125,5.947196960449219,7.608773231506348,-2.389413356781006
1789130050844316700,0.250316650390625,5.875370979309082,7.527369976043701,-2.097320795059204
1789130050860332300,0.266332275390625,6.100425720214844,7.560888767242432,-2.1068975925445557
1789130050876345900,0.282345947265625,5.999869346618652,7.618350028991699,-2.2361843585968018
1789130050892358100,0.298358154296875,5.693411827087402,7.580042362213135,-1.9345149993896484
1789130050908372000,0.3143720703125,5.817910194396973,7.675810813903809,-2.049436569213867
1789130050924381000,0.330380859375,5.995080947875977,7.920019149780273,-2.1547815799713135
1789130050940390100,0.34639013671875,6.349422931671143,7.752425193786621,-2.011129379272461
1789130050956400400,0.362400390625,6.18182897567749,7.709329605102539,-2.1068975925445557
1789130050972408300,0.378408203125,5.827486991882324,7.65186882019043,-1.9967641830444336
1789130050988416000,0.394416015625,6.0621185302734375,7.766790390014648,-2.10210919380188
1789130051004431000,0.41043115234375,6.229712963104248,7.690176010131836,-1.920149803161621
1789130051020445000,0.42644482421875,6.090848922729492,7.647080421447754,-1.9297266006469727
1789130051036459300,0.442459228515625,5.760449409484863,7.594407558441162,-1.8818424940109253
1789130051052466700,0.458466796875,5.626373767852783,7.594407558441162,-1.8770540952682495
1789130051068474400,0.474474365234375,5.525817394256592,7.51779317855835,-2.1068975925445557
1789130051084481000,0.49048095703125,5.578489780426025,7.594407558441162,-2.2601263523101807
1789130051100485000,0.506485107421875,5.683835029602051,7.493851184844971,-2.274491548538208
1789130051116490000,0.522489990234375,5.525817394256592,7.675810813903809,-2.3702597618103027
1789130051132490200,0.538490234375,5.39174222946167,7.55131196975708,-2.097320795059204
1789130051148495400,0.554495361328125,5.051765441894531,7.603984832763672,-2.346317768096924
1789130051164500200,0.570500244140625,4.486733913421631,7.757213592529297,-2.0015525817871094
1789130051180509200,0.58650927734375,4.697423934936523,8.11634349822998,-1.7764976024627686
1789130051196510200,0.60251025390625,5.60722017288208,8.149862289428711,-1.2976573705673218
1789130051212518100,0.61851806640625,6.4595561027526855,8.054094314575195,-1.53707754611969
1789130051228521500,0.634521484375,6.751648902893066,7.757213592529297,-1.7381904125213623
1789130051244524800,0.65052490234375,6.703764915466309,7.55131196975708,-1.8531121015548706
1789130051260530700,0.66653076171875,6.464344501495361,7.469909191131592,-2.030282974243164
1789130051276537300,0.682537353515625,5.961562156677246,7.723694801330566,-1.9153614044189453
1789130051292540000,0.698539794921875,5.726930618286133,7.99184513092041,-1.8387469053268433
1789130051308548900,0.714548828125,5.827486991882324,8.044517517089844,-1.6759412288665771
1789130051324557300,0.730557373046875,5.961562156677246,7.8098859786987305,-1.680729627609253
1789130051340567300,0.7465673828125,5.899312973022461,7.8960771560668945,-2.164358377456665
1789130051356568800,0.76256884765625,5.3582234382629395,7.675810813903809,-1.6663644313812256
1789130051372574200,0.77857421875,5.406107425689697,7.829039573669434,-1.944091796875
1789130051388579300,0.794579345703125,5.525817394256592,7.95832633972168,-1.5658079385757446
1789130051404585700,0.810585693359375,6.1052141189575195,7.924807548522949,-1.8770540952682495
1789130051420595000,0.826594970703125,6.507440090179443,7.762001991271973,-1.7812861204147339
1789130051436603400,0.842603271484375,6.742072105407715,7.642292022705078,-1.6855180263519287
1789130051452616400,0.858616455078125,6.833051681518555,7.565677165985107,-1.766920804977417
1789130051468630500,0.874630615234375,6.785167694091797,7.565677165985107,-1.7860745191574097
1789130051484643800,0.890643798828125,6.732495307922363,7.671022415161133,-1.9249382019042969
1789130051500654300,0.906654296875,6.5696892738342285,7.637503623962402,-1.699883222579956
1789130051516661800,0.922661865234375,6.320692539215088,7.642292022705078,-1.8722656965255737
1789130051532665600,0.93866552734375,5.760449409484863,7.766790390014648,-1.9393033981323242
1789130051548668700,0.954668701171875,5.295974254608154,7.6997528076171875,-1.9345149993896484
1789130051564679000,0.970678955078125,5.051765441894531,7.785943984985352,-1.8195933103561401
1789130051580684300,0.986684326171875,4.98472785949707,7.929595947265625,-1.4317326545715332
1789130051596684500,1.0026845703125,5.420472621917725,8.106766700744629,-1.2449848651885986
1789130051612690200,1.018690185546875,5.688623428344727,8.044517517089844,-1.6903064250946045
1789130051628693200,1.034693359375,5.4875102043151855,7.752425193786621,-1.7621324062347412
1789130051644692500,1.0506923828125,5.319916248321533,7.733271598815918,-1.8195933103561401
1789130051660692000,1.06669189453125,5.396530628204346,7.603984832763672,-1.766920804977417
1789130051676691000,1.08269091796875,5.659893035888672,7.575253963470459,-1.8387469053268433
1789130051692694800,1.09869482421875,5.726930618286133,7.532158374786377,-2.0398597717285156
1789130051708695800,1.11469580078125,5.832275390625,7.589619159698486,-2.140416383743286
1789130051724698000,1.130697998046875,6.1052141189575195,7.819462776184082,-1.944091796875
1789130051740708400,1.146708251953125,6.3302693367004395,7.95832633972168,-1.6376339197158813
1789130051756711700,1.162711669921875,6.382941722869873,8.164227485656738,-1.3838485479354858
1789130051772710000,1.1787099609375,6.2392897605896,8.097189903259277,-1.53707754611969
1789130051788711700,1.194711669921875,5.813121795654297,8.006210327148438,-1.6089035272598267
1789130051804714200,1.21071435546875,5.420472621917725,7.800309181213379,-1.5275006294250488
1789130051820716000,1.226716064453125,5.583278179168701,7.4986395835876465,-1.6376339197158813
1789130051836720000,1.24272021484375,5.746084213256836,7.484274387359619,-1.824381709098816
1789130051852730000,1.258730224609375,5.4252610206604,7.623138427734375,-1.6280571222305298
1789130051868726500,1.2747265625,5.5976433753967285,7.833827972412109,-1.8291701078414917
1789130051884733400,1.2907333984375,5.832275390625,7.857769966125488,-1.6328455209732056
1789130051900738800,1.30673876953125,6.138733386993408,7.752425193786621,-1.623268723487854
1789130051916743700,1.32274365234375,6.090848922729492,7.7763671875,-1.8914192914962769
1789130051932747300,1.338747314453125,5.803544998168945,7.637503623962402,-1.522712230682373
1789130051948760000,1.354760009765625,5.961562156677246,7.800309181213379,-1.7046716213226318
1789130051964764200,1.37076416015625,5.774814605712891,7.977479934692383,-1.5945383310317993
1789130051980771000,1.38677099609375,5.932831764221191,8.010998725891113,-1.7908629179000854
1789130051996776700,1.402776611328125,6.229712963104248,7.785943984985352,-1.5610195398330688
1789130052012783400,1.418783447265625,6.4595561027526855,7.479485988616943,-1.6424223184585571
1789130052028791800,1.434791748046875,6.296750545501709,7.465120792388916,-2.0446481704711914
1789130052044798000,1.4507978515625,5.750872611999512,7.422025203704834,-1.867477297782898
1789130052060805000,1.46680517578125,5.813121795654297,7.359776020050049,-1.9919757843017578
1789130052076806700,1.482806640625,5.880159378051758,7.560888767242432,-1.9632453918457031
1789130052092810800,1.498810791015625,5.884947776794434,7.671022415161133,-1.7525556087493896
1789130052108814300,1.514814453125,6.042964935302734,7.924807548522949,-1.7573440074920654
1789130052124816000,1.53081591796875,5.693411827087402,8.365341186523438,-1.6615760326385498
1789130052140822300,1.546822265625,5.631162166595459,8.279149055480957,-1.37906014919281
1789130052164827600,1.57082763671875,6.162675380706787,7.920019149780273,-1.4891934394836426
1789130052180826400,1.586826416015625,5.74129581451416,7.661445617675781,-1.5083470344543457
1789130052196830700,1.602830810546875,5.631162166595459,7.374141216278076,-1.2114660739898682
1789130052212830200,1.618830322265625,5.846640586853027,7.01979923248291,-1.2306196689605713
1789130052228833800,1.634833740234375,5.841852188110352,7.129932880401611,-2.0925323963165283
1789130052244837000,1.650837158203125,5.1810526847839355,7.7763671875,-2.8203697204589844
1789130052260837600,1.666837646484375,4.922478675842285,7.848193168640137,-1.886630892753601
1789130052276832000,1.68283203125,5.669469833374023,7.872135162353516,-1.7812861204147339
1789130052292830000,1.698829833984375,5.683835029602051,7.934384346008301,-1.403002142906189
1789130052308833300,1.714833251953125,5.224148273468018,7.757213592529297,-1.1252747774124146
1789130052324843300,1.73084326171875,5.228936672210693,7.905653953552246,-1.2832920551300049
1789130052340855800,1.746855712890625,4.975151062011719,8.121131896972656,-1.2976573705673218
1789130052356865000,1.762864990234375,4.812345504760742,8.279149055480957,-1.3838485479354858
1789130052372864800,1.77886474609375,4.644751071929932,8.312667846679688,-1.2737152576446533
1789130052388867300,1.794867431640625,4.553771495819092,8.360552787780762,-1.039083480834961
1789130052404870400,1.810870361328125,4.529829502105713,8.164227485656738,0.023942016065120697
1789130052420872200,1.8268720703125,5.066130638122559,6.507440090179443,0.05746084079146385
1789130052436868900,1.842868896484375,5.5976433753967285,5.9519853591918945,-0.569819986820221
1789130052452867600,1.85886767578125,6.694188117980957,7.201758861541748,-0.608127236366272
1789130052468868400,1.874868408203125,7.613561630249023,9.093177795410156,-0.5363011956214905
1789130052484868600,1.89086865234375,7.556100368499756,9.8784761428833,-0.7134721279144287
1789130052500874800,1.906874755859375,5.5545477867126465,9.136273384094238,-0.22026655077934265
1789130052516881000,1.922880859375,3.9264907836914062,8.379706382751465,0.2585737705230713
1789130052532883200,1.93888330078125,2.691082715988159,8.149862289428711,-0.05267243832349777
1789130052548883700,1.9548837890625,0.7709329724311829,7.948749542236328,-0.4357447028160095
1789130052564886300,1.97088623046875,0.828393816947937,6.976703643798828,-0.06224924325942993
1789130052580891400,1.986891357421875,3.514688014984131,5.430049419403076,0.038307227194309235
1789130052596895000,2.00289501953125,4.7836151123046875,4.692635536193848,-0.40222588181495667
1789130052612896300,2.018896240234375,4.812345504760742,4.410119533538818,0.28730419278144836
1789130052628898000,2.03489794921875,5.228936672210693,4.8267107009887695,-0.07182604819536209
1789130052644892400,2.050892333984375,4.520252704620361,4.845864295959473,0.14844051003456116
1789130052660890600,2.066890625,3.07415509223938,4.438849925994873,0.5267243981361389
1789130052676885000,2.082885009765625,2.557007312774658,4.616020679473877,1.1252747774124146
1789130052692873000,2.098873046875,3.0406360626220703,4.702212333679199,1.2641384601593018
1789130052708872000,2.114871826171875,5.760449409484863,5.406107425689697,0.6129156351089478
1789130052724873000,2.130873046875,8.93037223815918,6.421248912811279,-0.40701428055763245
1789130052740872200,2.1468720703125,12.287043571472168,5.631162166595459,-1.278503656387329
1789130052756872700,2.162872802734375,12.737153053283691,3.1507694721221924,-1.766920804977417
1789130052772876300,2.178876220703125,12.320562362670898,2.0446481704711914,-0.6272808313369751
1789130052788881200,2.194881103515625,10.5344877243042,2.609679937362671,0.8619126081466675
1789130052804883000,2.210883056640625,8.719682693481445,3.5434184074401855,2.255337953567505
1789130052820888300,2.226888427734375,8.164227485656738,2.695871114730835,2.0925323963165283
1789130052836894700,2.242894775390625,9.552865028381348,1.0007762908935547,1.5514427423477173
1789130052852904400,2.258904541015625,10.769119262695312,-0.9050082564353943,1.0055646896362305
1789130052868903400,2.2749033203125,12.473791122436523,-2.054224967956543,0.6416460275650024
1789130052884910000,2.29091015625,14.79616641998291,-1.7286136150360107,0.7422025203704834
1789130052900919000,2.3069189453125,15.480908393859863,-1.1348515748977661,1.0582371950149536
1789130052916920300,2.32292041015625,14.767436027526855,0.09576806426048279,1.455674648284912
1789130052932921600,2.338921630859375,13.73314094543457,2.10210919380188,3.466804027557373
1789130052948924200,2.354924072265625,13.895946502685547,4.534617900848389,5.999869346618652
1789130052964915700,2.370915771484375,16.184803009033203,5.750872611999512,6.852205276489258
1789130052980910600,2.38691064453125,13.488932609558105,4.170699596405029,5.544970989227295
1789130052996906200,2.40290625,11.501745223999023,2.4181437492370605,5.30076265335083
1789130053012901000,2.418901123046875,6.818686485290527,1.7381904125213623,4.802768707275391
1789130053028903400,2.4349033203125,4.726154327392578,2.4181437492370605,2.4133553504943848
1789130053044902400,2.45090234375,6.3973069190979,3.869029998779297,1.1109095811843872
1789130053060902100,2.466902099609375,8.796297073364258,5.104437828063965,1.5753847360610962
1789130053076900400,2.482900390625,8.413225173950195,4.999093055725098,2.557007312774658
1789130053092897300,2.498897216796875,7.575253963470459,4.63517427444458,3.2561142444610596
1789130053108891100,2.51489111328125,7.062894821166992,4.333505153656006,2.671929121017456
1789130053124893200,2.53089306640625,6.090848922729492,2.978386878967285,2.341529369354248
1789130053140888600,2.546888671875,6.856993675231934,2.8107926845550537,3.1747114658355713
1789130053156881000,2.562880859375,9.495404243469238,4.127603530883789,5.2911858558654785
1789130053172876500,2.57887646484375,12.18648624420166,3.6822822093963623,4.189853191375732
1789130053188873000,2.594873046875,10.11789608001709,2.2409727573394775,2.38462495803833
1789130053204868400,2.610868408203125,9.643844604492188,2.5665841102600098,4.3861775398254395
1789130053220863000,2.626863037109375,11.085153579711914,1.0773907899856567,5.329493045806885
1789130053236856000,2.64285595703125,8.69095230102539,0.33518823981285095,3.8977603912353516
1789130053252851200,2.658851318359375,5.161899089813232,1.0534487962722778,3.3662476539611816
1789130053268845600,2.674845458984375,8.341399192810059,1.7094600200653076,3.955221176147461
1789130053284846300,2.690846435546875,10.199298858642578,1.6519991159439087,3.883395195007324
1789130053300843000,2.706843017578125,10.381258964538574,0.8906430602073669,3.9217023849487305
1789130053316832000,2.72283203125,9.514557838439941,0.727837324142456,4.2951979637146
1789130053332826400,2.738826416015625,25.048137664794922,3.998316764831543,14.915876388549805
1789130053348819000,2.75481884765625,7.350199222564697,-0.44532153010368347,1.072602391242981
1789130053364814800,2.77081494140625,25.852590560913086,3.155557870864868,13.709198951721191
1789130053380810000,2.78681005859375,12.622231483459473,1.8531121015548706,4.122815132141113
1789130053396801300,2.80280126953125,8.973467826843262,0.2537853717803955,0.20111294090747833
1789130053412797000,2.818796875,8.389283180236816,2.346317768096924,-1.0342950820922852
1789130053428791000,2.834791015625,10.079588890075684,-1.800439715385437,-0.4836287498474121
1789130053444784000,2.8507841796875,7.4986395835876465,-1.843535304069519,2.896984100341797
1789130053460780300,2.8667802734375,7.398083209991455,-0.4692635238170624,5.540182590484619
1789130053476780000,2.882780029296875,31.431079864501953,25.804706573486328,20.618865966796875
1789130053492782600,2.898782470703125,4.2090067863464355,0.8188169598579407,4.8602294921875
1789130053508785200,2.91478515625,5.837063789367676,4.347870349884033,5.1810526847839355
1789130053524788200,2.930788330078125,4.970362663269043,5.128379821777344,3.203441858291626
1789130053540789800,2.946789794921875,7.757213592529297,6.54574728012085,1.2210428714752197
1789130053556788500,2.96278857421875,14.982913970947266,5.228936672210693,-3.8115692138671875
1789130053572792800,2.978792724609375,19.589357376098633,6.818686485290527,-3.399766445159912
1789130053588796400,2.99479638671875,16.634912490844727,7.182605266571045,2.279279947280884
1789130053604798700,3.010798828125,10.232817649841309,2.7102363109588623,3.1651346683502197
1789130053620807000,3.026806884765625,8.485051155090332,4.496310710906982,2.978386878967285
1789130053636817000,3.04281689453125,4.127603530883789,3.9839515686035156,1.623268723487854
1789130053652825000,3.0588251953125,7.536946773529053,4.424484729766846,2.82515811920166
1789130053668838000,3.074837890625,8.647856712341309,2.9065608978271484,2.9065608978271484
1789130053684850000,3.090849853515625,8.236053466796875,3.5386300086975098,2.604891538619995
1789130053700853200,3.106853271484375,9.619902610778809,3.1747114658355713,0.1628057211637497
1789130053716856300,3.122856201171875,10.649409294128418,3.7158010005950928,-0.47405192255973816
1789130053732857600,3.138857666015625,10.041281700134277,3.620033025741577,1.139639973640442
1789130053748863700,3.15486376953125,7.575253963470459,3.6822822093963623,1.6280571222305298
1789130053764873000,3.170873046875,7.795520782470703,3.533841609954834,1.4748282432556152
1789130053780885000,3.186885009765625,7.910442352294922,3.1076738834381104,1.5466543436050415
1789130053796891100,3.20289111328125,8.245630264282227,2.3080103397369385,1.1971008777618408
1789130053812898800,3.21889892578125,8.99740982055664,2.0446481704711914,2.121262788772583
1789130053828910000,3.23491015625,8.480262756347656,1.944091796875,1.6424223184585571
1789130053844921000,3.250921142578125,9.41400146484375,3.160346269607544,1.5610195398330688
1789130053860935400,3.266935302734375,8.767566680908203,2.873042106628418,0.6512228846549988
1789130053876955000,3.282954833984375,8.853757858276367,2.9065608978271484,0.7469909191131592
1789130053892966100,3.298966064453125,7.000645637512207,3.098097085952759,0.10055647045373917
1789130053908970800,3.314970703125,12.344504356384277,6.392518520355225,2.006340980529785
1789130053924978400,3.330978515625,9.442731857299805,5.319916248321533,0.3878606855869293
1789130053940991000,3.346990966796875,6.780379295349121,4.2090067863464355,0.5889736413955688
1789130053957001500,3.36300146484375,9.174580574035645,2.47560453414917,0.22026655077934265
1789130053973011500,3.379011474609375,7.168240070343018,2.7102363109588623,0.45489832758903503
1789130053989016800,3.395016845703125,11.659762382507324,2.3319525718688965,1.479616641998291
1789130054005022500,3.4110224609375,14.16409683227539,0.14365209639072418,5.501875400543213
1789130054021021400,3.427021484375,5.185841083526611,2.499546527862549,1.6136919260025024
1789130054037027300,3.44302734375,7.422025203704834,1.900996208190918,0.8954314589500427
1789130054053034500,3.459034423828125,5.679046630859375,2.0685901641845703,0.6943184733390808
1789130054069042000,3.4750419921875,8.53293514251709,1.3982137441635132,1.6711528301239014
1789130054085052000,3.491052001953125,23.357831954956055,-1.0055646896362305,7.829039573669434
1789130054101059600,3.5070595703125,6.382941722869873,-0.29209262132644653,2.1739351749420166
1789130054117062100,3.523062255859375,10.505757331848145,0.6560112833976746,0.31603461503982544
1789130054133067000,3.53906689453125,7.086836814880371,0.507570743560791,-0.47884035110473633
1789130054149071600,3.555071533203125,12.00452709197998,-0.014365210197865963,0.5123591423034668
1789130054165079300,3.571079345703125,8.537723541259766,0.06703764945268631,-0.26336219906806946
1789130054181086200,3.587086181640625,9.208099365234375,0.13407529890537262,0.7469909191131592
1789130054197092400,3.60309228515625,7.886500358581543,2.011129379272461,1.2497732639312744
1789130054213099300,3.619099365234375,11.654973983764648,0.7422025203704834,1.723825216293335
1789130054229101600,3.6351015625,11.018115997314453,1.7956513166427612,1.5610195398330688
1789130054245107700,3.651107666015625,11.736376762390137,0.7948749661445618,1.37906014919281
1789130054261112000,3.667112060546875,12.023680686950684,0.16759411990642548,1.5897499322891235
1789130054277121800,3.683121826171875,9.102754592895508,-0.11013327538967133,1.0773907899856567
1789130054293132000,3.699132080078125,9.05487060546875,-0.23942017555236816,1.2114660739898682
1789130054309141200,3.715141357421875,9.265560150146484,-1.1109095811843872,-0.05267243832349777
1789130054325150500,3.731150390625,7.915230751037598,-1.6759412288665771,1.3646949529647827
1789130054341159000,3.747158935546875,7.747636795043945,-1.3694833517074585,0.8954314589500427
1789130054357165300,3.763165283203125,4.189853191375732,0.569819986820221,1.7190368175506592
1789130054373173800,3.779173828125,8.829815864562988,0.07661445438861847,1.0247182846069336
1789130054389183200,3.795183349609375,10.797849655151367,0.9864110946655273,2.169146776199341
1789130054405192400,3.8111923828125,7.876923561096191,0.8571242094039917,3.4524388313293457
1789130054421202200,3.8272021484375,9.667786598205566,0.6847416758537292,3.1459810733795166
1789130054437208600,3.84320849609375,10.127472877502441,-0.033518824726343155,2.2601263523101807
1789130054453219600,3.859219482421875,9.318233489990234,-0.35434186458587646,1.0534487962722778
1789130054469229000,3.87522900390625,9.782708168029785,-0.15322890877723694,0.6512228846549988
1789130054485237000,3.891237060546875,10.453084945678711,0.047884032130241394,0.9481038451194763
1789130054501243600,3.90724365234375,9.38048267364502,0.009576806798577309,1.9488801956176758
1789130054517245400,3.923245361328125,8.738836288452148,0.3734954595565796,1.3694833517074585
1789130054533250300,3.939250244140625,10.462661743164062,-0.05746084079146385,2.3032219409942627
1789130054549254400,3.95525439453125,9.581595420837402,0.14365209639072418,2.0877439975738525
1789130054565260300,3.97126025390625,9.318233489990234,-0.07661445438861847,1.1683704853057861
1789130054581261800,3.98726171875,10.122684478759766,-0.507570743560791,0.40222588181495667
1789130054597265200,4.00326513671875,10.395624160766602,-1.680729627609253,-1.292868971824646
1789130054613277200,4.019277099609375,9.892841339111328,-2.188300371170044,-2.537853717803955
1789130054629280300,4.0352802734375,9.979032516479492,-0.6320692300796509,0.47405192255973816
1789130054645284400,4.051284423828125,9.68694019317627,1.6903064250946045,4.371812343597412
1789130054661288000,4.067287841796875,9.299078941345215,1.556231141090393,5.535394191741943
1789130054677292500,4.08329248046875,9.02135181427002,0.6799532771110535,3.2561142444610596
1789130054693295400,4.09929541015625,9.682151794433594,0.31603461503982544,1.7573440074920654
1789130054709297400,4.11529736328125,10.007762908935547,0.17238251864910126,1.4077905416488647
1789130054725301200,4.13130126953125,9.394847869873047,-0.1628057211637497,1.3934253454208374
1789130054741307000,4.147306884765625,9.979032516479492,-0.11013327538967133,1.4269442558288574
1789130054757313300,4.163313232421875,9.509769439697266,-0.363918662071228,1.316810965538025
1789130054773321200,4.1793212890625,10.02691650390625,-0.15322890877723694,0.5746083855628967
1789130054789324500,4.195324462890625,9.500192642211914,-0.19153612852096558,1.7142484188079834
1789130054805326300,4.211326416015625,9.897629737854004,-0.24420857429504395,2.298433542251587
1789130054821328000,4.227327880859375,9.854534149169922,0.009576806798577309,1.5514427423477173
1789130054837331700,4.243331787109375,9.725247383117676,-0.06224924325942993,1.1971008777618408
1789130054853333500,4.25933349609375,9.710882186889648,0.15322890877723694,1.7381904125213623
1789130054869337600,4.275337646484375,9.974244117736816,0.2537853717803955,1.4987702369689941
1789130054885348400,4.291348388671875,9.08838939666748,-0.2106897532939911,1.0965443849563599
1789130054901354500,4.3073544921875,10.256759643554688,0.06703764945268631,1.0678139925003052
1789130054917358000,4.323358154296875,10.438719749450684,-0.14365209639072418,1.556231141090393
1789130054933358300,4.3393583984375,10.357316970825195,-0.5602431893348694,1.3694833517074585
1789130054949358600,4.355358642578125,10.017339706420898,-0.5267243981361389,1.0342950820922852
1789130054965365200,4.371365234375,10.228029251098633,-0.9193734526634216,1.1444283723831177
1789130054981369300,4.387369384765625,9.509769439697266,-0.6033388376235962,0.7038952708244324
1789130054997373700,4.403373779296875,9.457097053527832,-0.3734954595565796,0.8427590131759644
1789130055013375200,4.419375244140625,9.442731857299805,-0.21547815203666687,1.2258312702178955
1789130055029383700,4.4353837890625,10.02691650390625,-0.05267243832349777,1.1252747774124146
1789130055045392100,4.45139208984375,10.180145263671875,-0.16759411990642548,1.0869675874710083
1789130055061398800,4.467398681640625,9.567230224609375,0.13407529890537262,0.8092401623725891
1789130055077400600,4.483400634765625,9.639056205749512,0.014365210197865963,0.5027823448181152
1789130055093406700,4.49940673828125,9.782708168029785,-0.1149216815829277,0.9816226959228516
1789130055109408300,4.515408203125,9.782708168029785,-0.11013327538967133,1.0438719987869263
1789130055125411800,4.531411865234375,10.290278434753418,-0.3878606855869293,0.7661445140838623
1789130055141418500,4.54741845703125,9.576807022094727,-0.40222588181495667,0.8475474119186401
1789130055157423000,4.563423095703125,9.806650161743164,-0.4836287498474121,0.9481038451194763
1789130055173427700,4.579427734375,9.77791976928711,-0.828393816947937,0.9385270476341248
1789130055189426200,4.59542626953125,9.667786598205566,-0.2825157940387726,0.9768342971801758
1789130055205431300,4.611431396484375,10.247182846069336,-0.20111294090747833,1.2066776752471924
1789130055221437000,4.62743701171875,9.883264541625977,-0.06224924325942993,0.8906430602073669
1789130055237446400,4.6434462890625,9.53849983215332,-0.2059013396501541,1.3982137441635132
1789130055253460700,4.659460693359375,10.012551307678223,-0.23942017555236816,0.9002198576927185
1789130055269471200,4.67547119140625,9.600749015808105,-0.043095629662275314,0.7852981686592102
1789130055285480200,4.691480224609375,10.103530883789062,0.043095629662275314,1.1540051698684692
1789130055301492700,4.70749267578125,10.917559623718262,0.07182604819536209,1.2258312702178955
1789130055317500700,4.723500732421875,9.911994934082031,-0.7565677165985107,1.2306196689605713
1789130055333507800,4.7395078125,10.08437728881836,-0.4357447028160095,0.569819986820221
1789130055349513200,4.75551318359375,9.816226959228516,-0.08140286058187485,0.7565677165985107
1789130055365525000,4.77152490234375,10.333374977111816,-0.5889736413955688,0.8571242094039917
1789130055381535700,4.78753564453125,10.06043529510498,-0.1388636976480484,1.316810965538025
1789130055397544700,4.803544677734375,10.299856185913086,-0.38307225704193115,1.048660397529602
1789130055413555200,4.81955517578125,9.131484985351562,-0.16759411990642548,1.091755986213684
1789130055429571600,4.835571533203125,9.782708168029785,0.009576806798577309,0.9864110946655273
1789130055445582300,4.851582275390625,9.859322547912598,-0.37828385829925537,0.871489405632019
1789130055461591600,4.867591552734375,10.194510459899902,-0.2298433631658554,0.569819986820221
1789130055477606700,4.883606689453125,10.156203269958496,-0.5123591423034668,1.015141487121582
1789130055493617000,4.899616943359375,10.1753568649292,-0.3878606855869293,1.0630255937576294
1789130055509628200,4.915628173828125,10.122684478759766,-0.4596867263317108,0.6751648783683777
1789130055525637600,4.9316376953125,10.074800491333008,-0.26336219906806946,0.7230489253997803
1789130055541656000,4.947656005859375,9.509769439697266,-0.4357447028160095,1.1109095811843872
1789130055557671700,4.963671630859375,10.223240852355957,-0.28730419278144836,0.5793967843055725
1789130055573687800,4.979687744140625,10.18493366241455,-0.29209262132644653,0.9528923034667969
1789130055589698600,4.995698486328125,9.792284965515137,-0.028730420395731926,0.5985504388809204
1789130055605708000,5.0117080078125,9.567230224609375,0.014365210197865963,0.9576807022094727
1789130055621712600,5.027712646484375,10.888829231262207,-0.033518824726343155,0.4213795065879822
1789130055637720600,5.043720458984375,9.624691009521484,-0.23942017555236816,0.9911994934082031
1789130055653728800,5.059728759765625,9.806650161743164,-0.10055647045373917,0.9097966551780701
1789130055669740000,5.075739990234375,10.165780067443848,0.14844051003456116,0.9672574996948242
1789130055685747700,5.091747802734375,9.96945571899414,-0.4118026793003082,0.6943184733390808
1789130055709764900,5.115764892578125,10.457873344421387,-0.26815059781074524,0.5171475410461426
1789130055725776600,5.131776611328125,9.615114212036133,-0.6512228846549988,0.8379706144332886
1789130055741789700,5.147789794921875,9.17936897277832,-0.8523358106613159,0.8236053586006165
1789130055757801200,5.16380126953125,10.012551307678223,-0.40701428055763245,1.048660397529602
1789130055773809400,5.179809326171875,10.357316970825195,-0.15322890877723694,0.6129156351089478
1789130055789817900,5.19581787109375,9.68694019317627,-0.5602431893348694,0.5267243981361389
1789130055805826800,5.211826904296875,9.390059471130371,-0.6272808313369751,1.0534487962722778
1789130055821832700,5.227832763671875,9.361329078674316,-0.5410895943641663,0.7757213711738586
1789130055837839600,5.243839599609375,10.093954086303711,-0.019153613597154617,0.4118026793003082
1789130055853851000,5.259850830078125,10.122684478759766,-0.08619125932455063,0.7230489253997803
1789130055869861400,5.275861328125,9.86889934539795,-0.2106897532939911,0.9481038451194763
1789130055885873200,5.291873046875,10.232817649841309,0.28730419278144836,1.3551181554794312
1789130055901879300,5.30787939453125,9.8784761428833,0.004788403399288654,0.5410895943641663
1789130055917888800,5.323888671875,9.983820915222168,-0.21547815203666687,0.8475474119186401
1789130055933900500,5.339900634765625,9.926360130310059,-0.3926490843296051,1.1635819673538208
1789130055949907200,5.3559072265625,10.050858497619629,-0.17717093229293823,0.8954314589500427
1789130055965910000,5.371909912109375,10.323798179626465,0.14365209639072418,0.8810662031173706
1789130055981910800,5.387910888671875,9.619902610778809,0.09576806426048279,0.47405192255973816
1789130055997919500,5.40391943359375,9.667786598205566,-0.35434186458587646,0.7709329724311829
1789130056013934300,5.419934326171875,10.122684478759766,-0.3447650372982025,0.7709329724311829
1789130056029944600,5.435944580078125,9.763554573059082,-0.2585737705230713,0.8379706144332886
1789130056045958400,5.45195849609375,9.720458984375,-0.3064578175544739,0.6751648783683777
1789130056061973000,5.467972900390625,10.08437728881836,-0.6177040338516235,0.7996633648872375
1789130056077986300,5.483986328125,10.141838073730469,-0.7661445140838623,0.5985504388809204
1789130056094001700,5.500001708984375,9.940725326538086,-0.05267243832349777,0.5506663918495178
1789130056110023400,5.5160234375,9.643844604492188,-0.1149216815829277,0.45010992884635925
1789130056126041000,5.532041015625,9.749189376831055,-0.38307225704193115,0.8667010068893433
1789130056142055000,5.548054931640625,10.251971244812012,-0.47405192255973816,0.8044517636299133
1789130056158072000,5.564072021484375,9.773131370544434,-0.7038952708244324,0.3256114423274994
1789130056174085600,5.580085693359375,9.476250648498535,-0.3447650372982025,0.9768342971801758
1789130056190101500,5.5961015625,9.945513725280762,-0.7086837291717529,0.5410895943641663
1789130056206114800,5.61211474609375,9.543288230895996,-0.3016694188117981,-0.11013327538967133
1789130056222128400,5.62812841796875,9.533711433410645,-0.17717093229293823,1.0103530883789062
1789130056246144500,5.65214453125,10.376470565795898,0.17238251864910126,0.7661445140838623
1789130056262161000,5.668160888671875,9.801861763000488,-0.11013327538967133,0.6224924325942993
1789130056278174000,5.684174072265625,9.284713745117188,0.17238251864910126,0.4884171485900879
1789130056294191900,5.70019189453125,10.371682167053223,-0.33518823981285095,0.44532153010368347
1789130056310207200,5.716207275390625,9.682151794433594,-0.5123591423034668,0.646434485912323
1789130056326221300,5.73222119140625,9.8784761428833,-0.871489405632019,0.5985504388809204
1789130056342233300,5.7482333984375,10.06043529510498,-0.5985504388809204,0.49320554733276367
1789130056358242600,5.76424267578125,10.127472877502441,-0.6751648783683777,0.6991068720817566
1789130056374258000,5.7802578125,10.108319282531738,-0.3256114423274994,0.44532153010368347
1789130056390275300,5.796275390625,10.15141487121582,-0.3734954595565796,0.9145850539207458
1789130056406293500,5.81229345703125,9.739612579345703,-0.06703764945268631,0.49799394607543945
1789130056422307600,5.8283076171875,10.591948509216309,-0.42616790533065796,0.790086567401886
1789130056438321700,5.84432177734375,9.907206535339355,-1.0965443849563599,0.3974374830722809
1789130056454334000,5.860333984375,9.787496566772461,-0.6272808313369751,1.0199298858642578
1789130056470348300,5.876348388671875,10.180145263671875,-0.40701428055763245,0.6224924325942993
1789130056486365400,5.892365478515625,10.381258964538574,-0.6799532771110535,0.043095629662275314
1789130056502385200,5.90838525390625,9.825803756713867,-0.07661445438861847,0.5315127968788147
1789130056518398200,5.924398193359375,9.47146224975586,-0.22026655077934265,1.8052281141281128
1789130056534417000,5.9404169921875,9.99339771270752,-0.569819986820221,0.10534487664699554
1789130056550440200,5.956440185546875,9.931148529052734,-0.29209262132644653,0.1149216815829277
1789130056566464000,5.972464111328125,9.5624418258667,0.11971008777618408,0.6512228846549988
1789130056582481000,5.98848095703125,10.036493301391602,-0.17717093229293823,1.1492167711257935
1789130056598494700,6.00449462890625,10.160991668701172,-0.35434186458587646,0.9433154463768005
1789130056614511600,6.02051171875,9.437943458557129,-0.5985504388809204,0.4357447028160095
1789130056630519600,6.03651953125,10.285490036010742,-1.1204863786697388,0.2346317619085312
1789130056646533600,6.05253369140625,10.342951774597168,-0.9433154463768005,0.42616790533065796
1789130056662545000,6.068544921875,9.232041358947754,-1.2401964664459229,0.6129156351089478
1789130056678557700,6.0845576171875,10.017339706420898,-0.272938996553421,0.6033388376235962
1789130056694568000,6.10056787109375,10.32858657836914,-0.023942016065120697,0.8810662031173706
1789130056710583600,6.11658349609375,10.18493366241455,-0.3926490843296051,1.015141487121582
1789130056726597600,6.13259765625,10.017339706420898,-1.2066776752471924,0.4357447028160095
1789130056742619600,6.14861962890625,9.591172218322754,-0.9050082564353943,0.3064578175544739
1789130056758636500,6.164636474609375,9.586383819580078,0.023942016065120697,0.24899697303771973
1789130056774652700,6.180652587890625,10.247182846069336,-0.2346317619085312,0.9720458984375
1789130056790670800,6.1966708984375,10.491392135620117,-0.15322890877723694,0.8044517636299133
1789130056806685700,6.212685791015625,10.093954086303711,-0.40701428055763245,0.6177040338516235
1789130056822708700,6.228708740234375,9.93593692779541,-0.5554547905921936,1.0199298858642578
1789130056838729000,6.24472900390625,10.500968933105469,-0.569819986820221,0.2777273952960968
1789130056854748700,6.260748779296875,9.361329078674316,-1.0821791887283325,0.5985504388809204
1789130056870771700,6.276771728515625,9.528923034667969,-0.3495534360408783,0.5841852426528931
1789130056886791200,6.292791259765625,9.950302124023438,0.37828385829925537,0.8044517636299133
1789130056902805000,6.308804931640625,9.768342971801758,-0.2106897532939911,0.8523358106613159
1789130056918820900,6.32482080078125,10.089165687561035,-0.646434485912323,0.9289502501487732
1789130056934839000,6.340839111328125,9.792284965515137,-0.047884032130241394,0.7565677165985107
1789130056950859000,6.35685888671875,9.926360130310059,-0.5410895943641663,0.5554547905921936
1789130056966885000,6.372885009765625,9.840168952941895,-1.0342950820922852,0.3878606855869293
1789130056982911000,6.388910888671875,9.701305389404297,-0.09576806426048279,0.33997663855552673
1789130056998934300,6.404934326171875,9.725247383117676,-0.3926490843296051,0.7805097699165344
1789130057014957300,6.420957275390625,10.251971244812012,-0.4405331015586853,0.29209262132644653
1789130057030979800,6.436979736328125,9.730035781860352,0.05267243832349777,0.6560112833976746
1789130057047002600,6.453002685546875,9.165003776550293,-0.14365209639072418,0.5315127968788147
1789130057063021300,6.469021240234375,9.557653427124023,-0.45489832758903503,0.5506663918495178
1789130057079040800,6.485040771484375,10.041281700134277,0.17717093229293823,0.272938996553421
1789130057095056100,6.50105615234375,9.576807022094727,-0.043095629662275314,0.8331822156906128
1789130057111074300,6.51707421875,10.663774490356445,-0.08619125932455063,1.0534487962722778
1789130057127091000,6.533091064453125,11.176133155822754,-0.17717093229293823,0.5219359993934631
1789130057143108400,6.5491083984375,9.44752025604248,-0.7565677165985107,0.9959878921508789
1789130057159122400,6.565122314453125,9.66299819946289,-0.2059013396501541,0.8092401623725891
1789130057175142400,6.581142333984375,10.338163375854492,-0.29209262132644653,0.8571242094039917
1789130057191165000,6.5971650390625,10.1753568649292,-0.6224924325942993,0.3064578175544739
1789130057207187000,6.61318701171875,9.643844604492188,-0.45489832758903503,0.7469909191131592
1789130057223209000,6.629208984375,10.036493301391602,-0.646434485912323,1.4460978507995605
1789130057239231000,6.64523095703125,10.055646896362305,-0.05267243832349777,0.47405192255973816
1789130057255246800,6.661246826171875,9.677363395690918,-0.44532153010368347,0.2298433631658554
1789130057271265300,6.677265380859375,9.141061782836914,-1.048660397529602,0.7757213711738586
1789130057287285500,6.693285400390625,9.418789863586426,-0.19632454216480255,0.7086837291717529
1789130057303310800,6.709310791015625,10.237606048583984,0.14365209639072418,0.5985504388809204
1789130057319334000,6.725333984375,9.457097053527832,-0.8619126081466675,0.8475474119186401
1789130057335349000,6.741348876953125,9.399636268615723,-0.5123591423034668,0.5410895943641663
1789130057351370500,6.75737060546875,9.600749015808105,-0.5841852426528931,0.3447650372982025
1789130057367390000,6.773389892578125,9.126696586608887,-0.7805097699165344,0.9911994934082031
1789130057383407900,6.789407958984375,10.577583312988281,-0.5746083855628967,0.569819986820221
1789130057399427600,6.805427490234375,10.007762908935547,-1.2401964664459229,0.6272808313369751
1789130057415444500,6.821444580078125,9.624691009521484,-1.3407529592514038,0.8954314589500427
1789130057431461400,6.83746142578125,9.93593692779541,-0.8954314589500427,0.8379706144332886
1789130057447480800,6.853480712890625,9.99339771270752,-0.6799532771110535,0.9481038451194763
1789130057463499500,6.86949951171875,9.801861763000488,-0.9816226959228516,0.9816226959228516
1789130057479512800,6.885512939453125,9.581595420837402,-1.4891934394836426,0.6655880808830261
1789130057495529000,6.901529052734375,9.318233489990234,-1.278503656387329,1.0055646896362305
1789130057511548400,6.91754833984375,10.189722061157227,-0.9720458984375,0.9145850539207458
1789130057527567400,6.9335673828125,9.275136947631836,-1.3886369466781616,1.436521053314209
1789130057543590400,6.94959033203125,9.610325813293457,-1.4413094520568848,1.0534487962722778
1789130057559616500,6.965616455078125,9.821015357971191,-1.158793568611145,1.3886369466781616
1789130057575641300,6.981641357421875,9.437943458557129,-1.5179238319396973,1.5897499322891235
1789130057591669200,6.997669189453125,9.495404243469238,-1.2545616626739502,1.9105730056762695
1789130057607694000,7.013694091796875,9.682151794433594,-1.699883222579956,1.50355863571167
1789130057623713500,7.029713623046875,9.308655738830566,-1.599326729774475,2.0925323963165283
1789130057639733500,7.0457333984375,9.792284965515137,-1.2114660739898682,2.1068975925445557
1789130057655754200,7.061754150390625,9.739612579345703,-1.2401964664459229,1.9297266006469727
1789130057671778600,7.077778564453125,9.41400146484375,-1.4939818382263184,2.2170307636260986
1789130057687803600,7.0938037109375,9.720458984375,-1.3694833517074585,2.049436569213867
1789130057703826400,7.109826416015625,9.653421401977539,-1.455674648284912,2.0877439975738525
1789130057719850800,7.125850830078125,9.418789863586426,-1.5131354331970215,2.006340980529785
1789130057735870200,7.1418701171875,9.99339771270752,-1.8818424940109253,2.5713725090026855
1789130057751892700,7.157892822265625,9.586383819580078,-1.460463047027588,2.6815059185028076
1789130057767915300,7.173915283203125,9.849745750427246,-0.790086567401886,2.432508945465088
1789130057783936000,7.18993603515625,9.715670585632324,-1.4460978507995605,2.2601263523101807
1789130057799959000,7.205958984375,9.47146224975586,-1.2210428714752197,2.580949544906616
1789130057815978800,7.221978759765625,9.514557838439941,-0.751779317855835,2.609679937362671
1789130057831998200,7.237998291015625,9.35654067993164,-1.3455413579940796,2.5330653190612793
1789130057848012000,7.254011962890625,9.81143856048584,-0.8667010068893433,2.4133553504943848
1789130057864024300,7.2700244140625,10.11789608001709,-0.7709329724311829,2.6384103298187256
1789130057880042200,7.286042236328125,9.658209800720215,-0.8619126081466675,2.3750481605529785
1789130057896065300,7.302065185546875,9.77791976928711,-0.6320692300796509,2.7772738933563232
1789130057912087300,7.31808740234375,9.758766174316406,-0.11971008777618408,2.7533318996429443
1789130057928116200,7.3341162109375,10.089165687561035,-0.3926490843296051,2.6144683361053467
1789130057944140000,7.35014013671875,10.074800491333008,-0.7613561153411865,2.6815059185028076
1789130057960159000,7.366158935546875,9.77791976928711,-0.8906430602073669,2.6862943172454834
1789130057976168200,7.382168212890625,9.346963882446289,-0.22505496442317963,2.9017724990844727
1789130057992183600,7.39818359375,9.442731857299805,-0.19153612852096558,2.5665841102600098
1789130058008203000,7.414203125,9.821015357971191,-0.3016694188117981,2.31758713722229
1789130058024217300,7.43021728515625,9.524134635925293,-0.07182604819536209,2.6384103298187256
1789130058040230400,7.44623046875,9.720458984375,-0.5410895943641663,2.676717519760132
1789130058056244500,7.462244384765625,9.428366661071777,-0.17717093229293823,2.403778553009033
1789130058072256300,7.47825634765625,9.169792175292969,0,2.542642116546631
1789130058088270800,7.494270751953125,9.2033109664917,0.363918662071228,2.5953147411346436
1789130058104281000,7.510281005859375,9.964667320251465,0.3208230137825012,2.1164743900299072
1789130058120295000,7.526294921875,9.21288776397705,0.023942016065120697,2.5234885215759277
1789130058136312800,7.542312744140625,8.83939266204834,-0.2346317619085312,2.762908697128296
1789130058152334000,7.558333984375,9.026140213012695,0.5841852426528931,2.3367409706115723
1789130058168349200,7.57434912109375,9.265560150146484,0.7134721279144287,2.3942017555236816
1789130058184369000,7.590368896484375,9.514557838439941,0.7230489253997803,2.1308395862579346
1789130058200391400,7.606391357421875,9.701305389404297,1.015141487121582,2.8395233154296875
1789130058216410000,7.62241015625,9.696516990661621,0.8571242094039917,2.341529369354248
1789130058232430300,7.638430419921875,9.327810287475586,0.6607996821403503,2.3032219409942627
1789130058248447700,7.65444775390625,9.797073364257812,0.4692635238170624,1.9967641830444336
1789130058264469200,7.67046923828125,9.883264541625977,0.5171475410461426,2.140416383743286
1789130058280489200,7.6864892578125,9.155426979064941,-0.24420857429504395,2.542642116546631
1789130058296513000,7.702512939453125,10.228029251098633,0.05746084079146385,2.121262788772583
1789130058312533200,7.718533203125,9.749189376831055,0.40222588181495667,1.6855180263519287
1789130058328551200,7.73455126953125,9.188945770263672,0.17238251864910126,1.987187385559082
1789130058344569900,7.75056982421875,9.466673851013184,0.6943184733390808,2.078166961669922
1789130058360590800,7.7665908203125,9.797073364257812,0.8331822156906128,1.5897499322891235
1789130058376606700,7.782606689453125,9.47146224975586,0.4644751250743866,1.8100165128707886
1789130058392618000,7.798617919921875,9.75397777557373,-0.08619125932455063,1.8818424940109253
1789130058408635000,7.814634765625,9.931148529052734,0.26336219906806946,1.5131354331970215
1789130058424656000,7.83065576171875,9.682151794433594,-0.22505496442317963,1.4269442558288574
1789130058440679700,7.8466796875,9.241618156433105,-0.8379706144332886,1.5322890281677246
1789130058456699400,7.862699462890625,9.859322547912598,-0.11013327538967133,1.4939818382263184
1789130058472724700,7.878724853515625,10.232817649841309,0.1867477297782898,1.235408067703247
1789130058488740000,7.894739990234375,9.854534149169922,-0.43095630407333374,1.3311761617660522
1789130058504756700,7.9107568359375,10.228029251098633,-0.33039984107017517,1.115697979927063
1789130058520778000,7.926778076171875,9.974244117736816,0.043095629662275314,1.2114660739898682
1789130058536797200,7.942797119140625,9.691728591918945,0.3064578175544739,1.1444283723831177
1789130058552811300,7.958811279296875,10.366893768310547,0.19632454216480255,1.1444283723831177
1789130058568827100,7.9748271484375,10.35252857208252,-0.17717093229293823,1.0678139925003052
1789130058584849200,7.99084912109375,9.907206535339355,-0.3495534360408783,0.790086567401886
1789130058600866000,8.006865966796875,9.600749015808105,-0.17238251864910126,1.4508862495422363
1789130058616879900,8.0228798828125,9.825803756713867,-0.2298433631658554,0.8092401623725891
1789130058632893400,8.0388935546875,9.792284965515137,0.19153612852096558,1.292868971824646
1789130058648908300,8.054908203125,9.5624418258667,0.17238251864910126,0.9959878921508789
1789130058664926000,8.070926025390625,9.744400978088379,-0.31124621629714966,1.0821791887283325
1789130058680942300,8.0869423828125,10.113107681274414,-0.019153613597154617,1.1540051698684692
1789130058696957200,8.102957275390626,10.046070098876953,0.08619125932455063,1.1779472827911377
1789130058712973600,8.1189736328125,9.509769439697266,-0.45489832758903503,1.1683704853057861
1789130058728984300,8.134984375,9.883264541625977,-0.3495534360408783,0.790086567401886
1789130058745001200,8.151001220703124,9.950302124023438,-0.10055647045373917,0.8331822156906128
1789130058761015600,8.167015625,9.188945770263672,0.2537853717803955,0.5889736413955688
1789130058777035300,8.18303515625,9.68694019317627,-0.11013327538967133,1.1683704853057861
1789130058793053400,8.199053466796874,10.022128105163574,0.45010992884635925,1.235408067703247
1789130058809072600,8.21507275390625,10.098742485046387,0.689530074596405,1.048660397529602
1789130058825092000,8.231092041015625,9.988609313964844,0.3256114423274994,1.0965443849563599
1789130058841108000,8.24710791015625,9.299078941345215,0.4357447028160095,1.3982137441635132
1789130058857122300,8.263122314453126,10.347740173339844,0.21547815203666687,0.9385270476341248
1789130058873135600,8.279135498046875,9.337387084960938,-0.2537853717803955,0.9576807022094727
1789130058889147100,8.295147216796876,10.261548042297363,-0.19153612852096558,1.0821791887283325
1789130058905155600,8.311155517578126,9.691728591918945,-0.09576806426048279,1.1540051698684692
1789130058921169000,8.3271689453125,9.605537414550781,0.363918662071228,1.158793568611145
1789130058937179600,8.3431796875,9.57201862335205,0.14844051003456116,1.766920804977417
1789130058953194500,8.359194580078125,9.797073364257812,0.22026655077934265,1.580173134803772
1789130058969208600,8.37520849609375,8.796297073364258,0.2825157940387726,1.8531121015548706
1789130058985219800,8.3912197265625,9.576807022094727,-0.009576806798577309,1.7334020137786865
1789130059001230800,8.40723095703125,9.667786598205566,-0.40701428055763245,2.030282974243164
1789130059017245200,8.4232451171875,9.964667320251465,-0.05746084079146385,1.9728221893310547
1789130059033260300,8.43926025390625,9.418789863586426,0.038307227194309235,2.049436569213867
1789130059049271800,8.455271728515624,9.763554573059082,0.11013327538967133,1.7525556087493896
1789130059065284000,8.4712841796875,9.715670585632324,0.05746084079146385,2.4229321479797363
1789130059081300200,8.48730029296875,10.036493301391602,-0.2059013396501541,1.9919757843017578
1789130059097311500,8.5033115234375,9.68694019317627,-0.2106897532939911,2.3032219409942627
1789130059113326000,8.519326171875,9.68694019317627,-0.2346317619085312,2.4803929328918457
1789130059129341400,8.535341552734375,9.461885452270508,-0.14844051003456116,2.341529369354248
1789130059145355800,8.551355712890626,9.064447402954102,0.09576806426048279,2.451662540435791
1789130059161366500,8.567366455078124,9.059659004211426,0.4213795065879822,2.4420857429504395
1789130059177383700,8.5833837890625,9.533711433410645,0.6991068720817566,2.5713725090026855
1789130059193398300,8.599398193359375,9.543288230895996,0.8331822156906128,2.365471363067627
1789130059209418000,8.61541796875,9.155426979064941,0.8092401623725891,2.892195701599121
1789130059225433300,8.631433349609376,9.725247383117676,0.33997663855552673,2.691082715988159
1789130059241447700,8.64744775390625,9.308655738830566,0.45010992884635925,2.470816135406494
1789130059257464000,8.663464111328125,9.533711433410645,0.5267243981361389,2.4229321479797363
1789130059273485600,8.679485595703126,9.524134635925293,-0.35913026332855225,2.580949544906616
1789130059289508900,8.6955087890625,9.66299819946289,-0.047884032130241394,2.738966703414917
1789130059305527800,8.71152783203125,9.806650161743164,0.009576806798577309,2.4468741416931152
1789130059321545700,8.727545654296875,9.32302188873291,0.06703764945268631,2.183511972427368
1789130059337559300,8.743559326171875,9.481039047241211,0.2825157940387726,2.8826189041137695
1789130059353568800,8.75956884765625,9.797073364257812,0.5506663918495178,2.47560453414917
1789130059369581000,8.7755810546875,8.992621421813965,0.3016694188117981,2.5330653190612793
1789130059385596200,8.79159619140625,9.916783332824707,0.5889736413955688,2.786850690841675
1789130059401612300,8.8076123046875,9.30386734008789,0.22505496442317963,3.112462282180786
1789130059417623300,8.823623291015625,9.227252960205078,0.19632454216480255,2.801215887069702
1789130059433635800,8.8396357421875,9.255983352661133,-0.2346317619085312,2.868253707885742
1789130059449645300,8.855645263671875,9.121908187866211,-0.5554547905921936,2.9448680877685547
1789130059465655600,8.871655517578125,8.892065048217773,-0.5937620401382446,2.9448680877685547
1789130059481668600,8.887668701171876,9.165003776550293,-0.3016694188117981,2.22660756111145
1789130059497682000,8.903681884765625,8.892065048217773,0.06703764945268631,2.940079689025879
1789130059513691400,8.91969140625,9.806650161743164,0.33518823981285095,3.4141316413879395
1789130059529702400,8.935702392578126,9.126696586608887,-0.26815059781074524,2.8634653091430664
1789130059545710600,8.951710693359376,8.681375503540039,0.181959331035614,3.1459810733795166
1789130059561718800,8.96771875,9.567230224609375,0.646434485912323,3.667917013168335
1789130059577730800,8.983730712890624,9.533711433410645,0.45010992884635925,3.4572272300720215
1789130059593739300,8.9997392578125,9.222464561462402,0.19632454216480255,3.442862033843994
1789130059609746700,9.01574658203125,9.332598686218262,-0.2346317619085312,3.442862033843994
1789130059625757400,9.03175732421875,8.944737434387207,-0.3208230137825012,3.227383852005005
1789130059641769200,9.047769287109375,9.227252960205078,-0.49320554733276367,3.313575267791748
1789130059665782500,9.071782470703125,8.844181060791016,0.05746084079146385,3.7828385829925537
1789130059681794800,9.087794921875,9.476250648498535,-0.4836287498474121,3.624821424484253
1789130059697806600,9.103806640625,9.404424667358398,-0.5937620401382446,3.1507694721221924
1789130059713818000,9.119818115234375,8.911218643188477,-0.33039984107017517,3.73016619682312
1789130059729831000,9.135830810546874,9.117119789123535,-0.31603461503982544,3.466804027557373
1789130059745846500,9.151846435546876,8.892065048217773,-0.08140286058187485,3.7445313930511475
1789130059761856300,9.167856201171874,9.136273384094238,0.4118026793003082,3.754108190536499
1789130059777873700,9.183873779296874,9.284713745117188,0.2106897532939911,4.170699596405029
1789130059793891300,9.199891357421874,9.461885452270508,0.17238251864910126,3.931279182434082
1789130059809904600,9.215904541015625,9.136273384094238,0.2106897532939911,3.9600095748901367
1789130059825913600,9.23191357421875,9.21288776397705,-0.3734954595565796,3.8594532012939453
1789130059841927700,9.247927734375,9.026140213012695,-0.2968810200691223,3.7158010005950928
1789130059857945900,9.26394580078125,8.710105895996094,-0.24899697303771973,3.955221176147461
1789130059873961200,9.279961181640624,9.002198219299316,-0.181959331035614,3.509899616241455
1789130059889977300,9.295977294921874,8.968679428100586,-0.014365210197865963,4.199429988861084
1789130059905988900,9.31198876953125,9.17936897277832,0.12928688526153564,4.065354347229004
1789130059922000600,9.328000732421875,9.064447402954102,0.6991068720817566,4.132391929626465
1789130059938015500,9.344015380859375,9.38048267364502,0.19153612852096558,4.189853191375732
1789130059954031600,9.360031494140625,8.901641845703125,-0.47884035110473633,3.663128614425659
1789130059970042000,9.3760419921875,8.365341186523438,-0.5219359993934631,3.7397429943084717
1789130059986051000,9.392051025390625,9.169792175292969,-0.24899697303771973,4.0749311447143555
1789130060002068200,9.408068115234375,9.121908187866211,0.33518823981285095,3.8977603912353516
1789130060018079700,9.424079833984376,8.647856712341309,0.17238251864910126,4.309563159942627
1789130060034094300,9.44009423828125,9.38048267364502,0.28730419278144836,4.558559894561768
1789130060050112500,9.456112548828125,8.796297073364258,0.5746083855628967,4.2951979637146
1789130060066128000,9.4721279296875,9.21288776397705,-0.19153612852096558,3.6296098232269287
1789130060082143700,9.488143798828125,8.236053466796875,-0.3447650372982025,4.228160381317139
1789130060098159000,9.5041591796875,8.882488250732422,-0.12449848651885986,4.0749311447143555
1789130060114177300,9.52017724609375,8.585607528686523,-0.24899697303771973,3.907337188720703
1789130060130195700,9.53619580078125,8.355764389038086,0.090979665517807,4.501099109649658
1789130060146211300,9.55221142578125,8.480262756347656,0.2537853717803955,4.525041103363037
1789130060162227200,9.568227294921876,9.074024200439453,0.15322890877723694,4.458003520965576
1789130060186253300,9.59225341796875,8.288725852966309,0.21547815203666687,4.797980308532715
1789130060202272300,9.608272216796875,9.08838939666748,0.12449848651885986,3.9600095748901367
1789130060218285300,9.624285400390624,8.825027465820312,0.004788403399288654,4.668693542480469
1789130060234301400,9.640301513671876,9.351752281188965,-0.028730420395731926,4.23773717880249
1789130060250315000,9.65631494140625,8.89685344696045,-0.9385270476341248,3.5913026332855225
1789130060266330600,9.67233056640625,9.093177795410156,-0.6560112833976746,3.931279182434082
1789130060282346800,9.6883466796875,8.59997272491455,0.12928688526153564,4.189853191375732
1789130060298365200,9.704365234375,8.585607528686523,0.38307225704193115,4.458003520965576
1789130060314379800,9.7203798828125,9.351752281188965,0.2059013396501541,4.812345504760742
1789130060330393600,9.7363935546875,9.006986618041992,-0.1628057211637497,4.357447147369385
1789130060346409700,9.75240966796875,8.829815864562988,-0.7996633648872375,3.88818359375
1789130060362431700,9.768431640625,8.585607528686523,-0.8427590131759644,4.027047157287598
1789130060378454000,9.7844541015625,8.983044624328613,0.019153613597154617,4.520252704620361
1789130060394466800,9.800466796875,8.863334655761719,0.09576806426048279,4.434061527252197
1789130060410482700,9.816482666015625,9.08838939666748,0.014365210197865963,4.424484729766846
1789130060426499000,9.8324990234375,8.815450668334961,0.3974374830722809,4.199429988861084
1789130060442518800,9.848518798828126,9.35654067993164,-0.3974374830722809,4.170699596405029
1789130060458535000,9.864534912109375,9.160215377807617,-0.8954314589500427,3.7158010005950928
1789130060474553000,9.880552978515626,8.868123054504395,-0.6560112833976746,3.7876269817352295
1789130060490566100,9.896566162109375,8.643068313598633,-0.4357447028160095,3.691859006881714
1789130060506582800,9.912582763671875,9.14585018157959,0.2968810200691223,3.883395195007324
1789130060522595800,9.928595947265626,9.691728591918945,0.3064578175544739,3.5913026332855225
1789130060538611000,9.94461083984375,9.050082206726074,-0.4165911078453064,3.6296098232269287
1789130060554628400,9.96062841796875,9.677363395690918,-0.05746084079146385,3.117250680923462
1789130060570642700,9.976642578125,9.366117477416992,-0.15801730751991272,2.911349296569824
1789130060586654200,9.992654296875,8.370129585266113,-0.35913026332855225,3.2561142444610596
1789130060602672600,10.008672607421875,9.461885452270508,0.2825157940387726,3.5913026332855225
1789130060618690000,10.02468994140625,9.41400146484375,0.014365210197865963,3.687070608139038
1789130060634708000,10.0407080078125,9.907206535339355,-0.24420857429504395,3.021482467651367
1789130060650725600,10.0567255859375,9.452308654785156,-0.6751648783683777,2.6815059185028076
1789130060666744600,10.07274462890625,8.791508674621582,-0.5410895943641663,3.1459810733795166
1789130060682764300,10.088764404296874,8.83939266204834,-0.2777273952960968,3.1651346683502197
1789130060698786800,10.104786865234376,9.600749015808105,0.014365210197865963,3.423708438873291
1789130060714807000,10.12080712890625,9.14585018157959,-0.023942016065120697,4.0749311447143555
1789130060730821400,10.1368212890625,9.605537414550781,-0.2106897532939911,2.9496564865112305
1789130060746834700,10.152834716796875,8.959102630615234,-0.6991068720817566,3.0358476638793945
1789130060762844000,10.168843994140625,8.868123054504395,-0.31124621629714966,3.050212860107422
1789130060778854100,10.184854248046875,9.279925346374512,0.1867477297782898,3.308786630630493
1789130060794871600,10.20087158203125,8.815450668334961,-0.33997663855552673,3.6774938106536865
1789130060810890200,10.21689013671875,9.294290542602539,0.19153612852096558,3.5242648124694824
1789130060826902300,10.23290234375,9.691728591918945,-0.08619125932455063,2.873042106628418
1789130060842914300,10.248914306640625,9.165003776550293,-0.9624691009521484,2.8203697204589844
1789130060858929200,10.26492919921875,8.734047889709473,-0.6991068720817566,2.920926094055176
1789130060874943700,10.28094384765625,8.87291145324707,-0.3495534360408783,3.3470940589904785
1789130060890952700,10.29695263671875,9.524134635925293,-0.31603461503982544,3.5194764137268066
1789130060906964200,10.312964111328125,9.318233489990234,-0.5171475410461426,3.160346269607544
1789130060922977000,10.32897705078125,9.232041358947754,-0.7948749661445618,3.5242648124694824
1789130060938987800,10.34498779296875,9.57201862335205,-1.1779472827911377,2.829946517944336
1789130060963003100,10.369003173828125,9.481039047241211,-0.20111294090747833,3.4572272300720215
1789130060979015700,10.385015625,9.979032516479492,-0.5315127968788147,3.428496837615967
1789130060995030500,10.401030517578125,8.767566680908203,-1.0630255937576294,2.964021682739258
1789130061011036400,10.417036376953124,9.05487060546875,-0.7182605266571045,3.0837318897247314
1789130061027041800,10.433041748046875,9.557653427124023,-0.3687070608139038,3.0885202884674072
1789130061043050800,10.44905078125,8.968679428100586,-0.363918662071228,3.6535518169403076
1789130061059059700,10.465059814453125,9.75397777557373,-0.4357447028160095,3.667917013168335
1789130061075074600,10.481074462890625,9.653421401977539,-0.9528923034667969,3.179499864578247
1789130061091094000,10.497093994140625,9.672574996948242,-1.235408067703247,2.873042106628418
1789130061107108400,10.5131083984375,9.327810287475586,-0.6703764796257019,3.155557870864868
1789130061123127000,10.529126953125,9.002198219299316,-0.14365209639072418,3.7397429943084717
1789130061139148500,10.5451484375,9.442731857299805,-0.727837324142456,3.466804027557373
1789130061155168500,10.56116845703125,9.495404243469238,-0.545877993106842,3.691859006881714
1789130061171186000,10.57718603515625,9.509769439697266,-1.1827356815338135,2.6431987285614014
1789130061187202000,10.5932021484375,9.227252960205078,-1.1827356815338135,3.1316158771514893
1789130061203223800,10.609223876953125,9.131484985351562,-0.608127236366272,3.691859006881714
1789130061219246000,10.62524609375,9.035717010498047,-0.8140285611152649,3.471592426300049
1789130061235265000,10.64126513671875,9.672574996948242,-1.0342950820922852,2.9496564865112305
1789130061251277600,10.657277587890626,9.074024200439453,-1.2401964664459229,3.1316158771514893
1789130061267287300,10.673287353515626,9.11233139038086,-0.7948749661445618,3.246537446975708
1789130061283296300,10.689296142578126,9.461885452270508,-0.33039984107017517,3.821146011352539
1789130061299309000,10.70530908203125,9.706093788146973,-0.4596867263317108,3.3470940589904785
1789130061315326500,10.721326416015625,9.275136947631836,-1.5275006294250488,2.896984100341797
1789130061331342300,10.73734228515625,9.14585018157959,-1.0438719987869263,3.2417490482330322
1789130061347359500,10.753359375,9.399636268615723,-0.6751648783683777,3.8546648025512695
1789130061363374600,10.76937451171875,9.44752025604248,-0.9864110946655273,3.399766445159912
1789130061379390500,10.785390380859376,9.557653427124023,-1.7525556087493896,2.9257144927978516
1789130061395408400,10.801408447265626,8.968679428100586,-1.6663644313812256,3.1220390796661377
1789130061411425300,10.81742529296875,9.423578262329102,-1.1875240802764893,3.7684733867645264
1789130061427447300,10.833447265625,9.452308654785156,-1.6663644313812256,3.2178070545196533
1789130061443471600,10.8494716796875,9.241618156433105,-1.7286136150360107,2.82515811920166
1789130061459496000,10.865495849609376,9.418789863586426,-1.2449848651885986,3.375824451446533
1789130061475519000,10.88151904296875,8.99740982055664,-1.091755986213684,3.797203779220581
1789130061491534600,10.89753466796875,9.47146224975586,-1.9823989868164062,3.1220390796661377
1789130061507554300,10.91355419921875,8.959102630615234,-2.47560453414917,3.0358476638793945
1789130061523575000,10.929574951171874,9.452308654785156,-1.436521053314209,3.375824451446533
1789130061539593000,10.945593017578124,9.117119789123535,-1.3311761617660522,3.1028854846954346
1789130061555614500,10.961614501953125,8.628703117370605,-2.0398597717285156,3.2321722507476807
1789130061571635700,10.9776357421875,9.169792175292969,-1.5322890281677246,3.576937437057495
1789130061587655200,10.9936552734375,9.083600997924805,-1.656787633895874,3.184288263320923
1789130061603677700,11.009677734375,9.265560150146484,-2.0685901641845703,3.5194764137268066
1789130061619698000,11.025697998046875,9.11233139038086,-2.054224967956543,3.0789434909820557
1789130061635721000,11.041720947265626,8.89685344696045,-1.7286136150360107,3.5673606395721436
1789130061651736300,11.057736328125,8.93037223815918,-1.8483237028121948,3.3710360527038574
1789130061667752200,11.073752197265625,9.366117477416992,-2.140416383743286,2.9927520751953125
1789130061683763500,11.089763427734376,9.366117477416992,-1.3551181554794312,2.9305028915405273
1789130061707795200,11.113795166015626,9.696516990661621,-1.2880805730819702,3.361459255218506
1789130061723823000,11.129822998046874,9.437943458557129,-1.1252747774124146,3.9695863723754883
1789130061739843300,11.14584326171875,9.533711433410645,-1.1971008777618408,3.3854012489318848
1789130061755863000,11.161863037109375,9.337387084960938,-1.987187385559082,2.7102363109588623
1789130061771880400,11.17788037109375,8.815450668334961,-1.1252747774124146,3.002328872680664
1789130061787899000,11.19389892578125,9.102754592895508,-1.192312479019165,3.5625722408294678
1789130061803918800,11.2099189453125,9.792284965515137,-2.1068975925445557,3.6152446269989014
1789130061819940600,11.225940673828125,9.490615844726562,-1.4221558570861816,2.7006595134735107
1789130061835954200,11.2419541015625,8.762778282165527,-1.5275006294250488,3.5194764137268066
1789130061851971000,11.25797119140625,8.719682693481445,-1.647210717201233,3.5721490383148193
1789130061867985400,11.2739853515625,9.11233139038086,-1.316810965538025,3.1076738834381104
1789130061884000000,11.29,9.342175483703613,-1.5418659448623657,3.136404275894165
1789130061900016000,11.30601611328125,9.418789863586426,-0.7852981686592102,3.643975019454956
1789130061916026600,11.322026611328125,9.188945770263672,-1.5418659448623657,3.098097085952759
1789130061932035300,11.338035400390625,9.155426979064941,-1.7190368175506592,2.75812029838562
1789130061948045800,11.3540458984375,8.255207061767578,-1.8770540952682495,3.7253777980804443
1789130061964057300,11.370057373046874,9.174580574035645,-1.7477672100067139,3.5003228187561035
1789130061980063500,11.3860634765625,8.939949035644531,-2.2170307636260986,2.9065608978271484
1789130061996074200,11.40207421875,8.83939266204834,-1.8483237028121948,2.935291290283203
1789130062012082400,11.41808251953125,9.442731857299805,-0.6033388376235962,3.950432777404785
1789130062028083500,11.43408349609375,9.404424667358398,-1.479616641998291,3.428496837615967
1789130062052094700,11.4580947265625,9.346963882446289,-0.5219359993934631,3.35667085647583
1789130062068106500,11.4741064453125,8.255207061767578,-0.6033388376235962,3.7493197917938232
1789130062084124200,11.490124267578125,9.696516990661621,-1.6711528301239014,2.9544448852539062
1789130062100145400,11.5061455078125,9.289502143859863,-1.6424223184585571,3.35667085647583
1789130062116162300,11.522162353515625,9.02135181427002,-0.6320692300796509,3.8115692138671875
1789130062132179500,11.538179443359375,9.437943458557129,-1.2114660739898682,3.1220390796661377
1789130062148189700,11.554189697265626,8.858546257019043,-2.054224967956543,3.064578056335449
1789130062164205000,11.570205078125,8.983044624328613,-1.0965443849563599,3.5625722408294678
1789130062180212200,11.586212158203125,9.41400146484375,-1.0869675874710083,3.687070608139038
1789130062196224500,11.602224609375,9.05487060546875,-1.6950948238372803,3.423708438873291
1789130062212238300,11.61823828125,8.99740982055664,-2.2649147510528564,2.7485435009002686
1789130062228255200,11.634255126953125,9.08838939666748,-1.5322890281677246,3.2178070545196533
1789130062244274400,11.6502744140625,9.222464561462402,-0.5410895943641663,3.8355112075805664
1789130062268296400,11.67429638671875,9.399636268615723,-1.2306196689605713,3.576937437057495
1789130062284312600,11.6903125,9.050082206726074,-0.8906430602073669,3.557783842086792
1789130062300327000,11.706326904296875,8.38449478149414,-1.8387469053268433,3.2178070545196533
1789130062316339500,11.72233935546875,9.351752281188965,-1.6855180263519287,3.2561142444610596
1789130062332351700,11.738351806640624,9.155426979064941,-1.1109095811843872,3.840299606323242
1789130062348359000,11.75435888671875,9.006986618041992,-1.4700398445129395,3.3039982318878174
1789130062364365000,11.770364990234375,9.452308654785156,-1.4317326545715332,2.8443117141723633
1789130062380368400,11.786368408203124,9.217676162719727,-1.6424223184585571,2.8443117141723633
1789130062396370200,11.8023701171875,8.705317497253418,-1.5753847360610962,3.5194764137268066
1789130062412375600,11.81837548828125,9.208099365234375,-1.0869675874710083,3.8786067962646484
1789130062428379600,11.834379638671875,9.983820915222168,-1.6136919260025024,2.9161376953125
1789130062444389600,11.8503896484375,9.126696586608887,-1.53707754611969,3.0597896575927734
1789130062476405000,11.882405029296875,9.150638580322266,-1.3934253454208374,3.529053211212158
1789130062492410000,11.89841015625,9.399636268615723,-1.2737152576446533,3.00711727142334
1789130062508416300,11.914416259765625,9.476250648498535,-0.8858546018600464,2.868253707885742
1789130062524423400,11.93042333984375,9.198522567749023,-1.6089035272598267,3.313575267791748
1789130062540423200,11.946423095703125,9.763554573059082,-1.4700398445129395,3.4093432426452637
1789130062556420600,11.962420654296874,8.992621421813965,-1.2066776752471924,3.002328872680664
1789130062572429800,11.978429931640624,9.121908187866211,-1.556231141090393,3.1316158771514893
1789130062588435200,11.994435302734376,9.926360130310059,-1.278503656387329,3.3518824577331543
1789130062604437200,12.010437255859374,9.160215377807617,-0.9481038451194763,3.5913026332855225
1789130062620443400,12.026443359375,9.284713745117188,-1.158793568611145,3.1507694721221924
1789130062636450000,12.042449951171875,9.227252960205078,-0.9864110946655273,3.2130186557769775
1789130062652462600,12.058462646484376,9.074024200439453,-0.8092401623725891,3.361459255218506
1789130062668475400,12.074475341796875,9.567230224609375,-1.2018892765045166,3.4332852363586426
1789130062684486100,12.090486083984375,9.275136947631836,-1.0295066833496094,3.2321722507476807
1789130062700496400,12.106496337890626,9.23682975769043,-1.292868971824646,3.050212860107422
1789130062716505600,12.122505615234376,9.117119789123535,-1.1971008777618408,3.576937437057495
1789130062732514800,12.138514892578126,9.174580574035645,-1.3024457693099976,3.227383852005005
1789130062748522500,12.1545224609375,9.11233139038086,-1.1540051698684692,2.983175277709961
1789130062764531000,12.170531005859376,9.600749015808105,-1.2497732639312744,3.423708438873291
1789130062780544500,12.18654443359375,9.17936897277832,-0.8571242094039917,3.44765043258667
1789130062796560000,12.202559814453124,9.08838939666748,-0.7661445140838623,3.332728862762451
1789130062812573700,12.21857373046875,9.045293807983398,-0.8092401623725891,3.28963303565979
1789130062828581400,12.234581298828125,9.011775016784668,-1.1300631761550903,3.098097085952759
1789130062844591400,12.25059130859375,9.064447402954102,-0.8571242094039917,3.2752678394317627
1789130062860604000,12.26660400390625,8.772355079650879,-1.048660397529602,3.485957622528076
1789130062876615700,12.28261572265625,9.509769439697266,-0.9911994934082031,3.3039982318878174
1789130062892625700,12.298625732421876,9.696516990661621,-1.4508862495422363,3.1316158771514893
1789130062908634000,12.314634033203125,8.686163902282715,-1.436521053314209,3.404554843902588
1789130062924647000,12.33064697265625,9.232041358947754,-0.9768342971801758,3.4572272300720215
1789130062940660700,12.34666064453125,9.730035781860352,-0.9959878921508789,3.093308687210083
1789130062956669400,12.36266943359375,9.308655738830566,-0.933738648891449,3.6343982219696045
1789130062972677400,12.378677490234375,9.260771751403809,-0.8667010068893433,3.2848446369171143
1789130062988689000,12.39468896484375,9.351752281188965,-1.0773907899856567,2.8443117141723633
1789130063004701200,12.410701171875,8.7484130859375,-1.359906554222107,3.60566782951355
1789130063020715000,12.426715087890624,9.313444137573242,-1.2114660739898682,3.4620156288146973
1789130063036722200,12.44272216796875,9.964667320251465,-1.2401964664459229,3.179499864578247
1789130063052728300,12.458728271484375,9.552865028381348,-1.436521053314209,3.4955344200134277
1789130063068740900,12.474740966796874,9.911994934082031,-0.790086567401886,3.6774938106536865
1789130063084755700,12.490755615234375,9.715670585632324,-0.4836287498474121,3.35667085647583
1789130063100770800,12.506770751953125,8.671798706054688,-0.7469909191131592,3.1507694721221924
1789130063116783400,12.522783447265626,9.835380554199219,-1.1348515748977661,3.5003228187561035
1789130063132795400,12.53879541015625,9.284713745117188,-0.47405192255973816,3.203441858291626
1789130063148803000,12.554802978515625,9.476250648498535,-0.4596867263317108,3.0550012588500977
1789130063164816600,12.570816650390626,9.50498104095459,-0.545877993106842,2.940079689025879
1789130063180833800,12.586833740234376,9.275136947631836,-0.8523358106613159,2.9688100814819336
1789130063196851500,12.6028515625,9.35654067993164,-0.8571242094039917,2.7772738933563232
1789130063212866300,12.6188662109375,9.107542991638184,-0.7422025203704834,2.4612393379211426
1789130063228882400,12.63488232421875,9.069235801696777,-1.1061211824417114,2.671929121017456
1789130063244895000,12.65089501953125,9.255983352661133,-1.0247182846069336,2.389413356781006
1789130063260902400,12.66690234375,8.911218643188477,-1.2689268589019775,2.3127987384796143
1789130063276908300,12.682908203125,8.935160636901855,-1.522712230682373,2.6144683361053467
1789130063292922000,12.698922119140626,8.96389102935791,-1.5083470344543457,2.5234885215759277
1789130063308935000,12.714934814453125,9.533711433410645,-1.460463047027588,2.604891538619995
1789130063324945700,12.730945556640625,9.265560150146484,-1.4413094520568848,2.853888511657715
1789130063340956700,12.746956787109376,9.05487060546875,-1.1540051698684692,2.5761611461639404
1789130063356969500,12.762969482421875,9.217676162719727,-1.8339585065841675,2.8347349166870117
1789130063372985900,12.77898583984375,9.8784761428833,-1.599326729774475,2.9688100814819336
1789130063389005600,12.795005615234375,9.107542991638184,-1.0582371950149536,3.160346269607544
1789130063405020400,12.8110205078125,8.451532363891602,-0.9864110946655273,3.490746021270752
1789130063421028000,12.827028076171874,10.031704902648926,-1.4748282432556152,2.734178304672241
1789130063437039000,12.8430390625,9.44752025604248,-1.2832920551300049,3.2561142444610596
1789130063453045800,12.859045654296875,9.150638580322266,-0.8571242094039917,2.892195701599121
1789130063469054500,12.875054443359375,9.53849983215332,-0.24420857429504395,2.806004285812378
1789130063485060900,12.891060791015626,8.585607528686523,-0.8906430602073669,2.9305028915405273
1789130063501064700,12.907064697265625,8.844181060791016,-0.8140285611152649,3.2417490482330322
1789130063517064000,12.92306396484375,9.035717010498047,-0.6943184733390808,3.2417490482330322
1789130063533066000,12.93906591796875,9.710882186889648,-1.2832920551300049,3.3662476539611816
1789130063549072000,12.95507177734375,9.351752281188965,-1.1683704853057861,3.203441858291626
1789130063565081300,12.971081298828125,8.820239067077637,-1.479616641998291,2.983175277709961
1789130063581095000,12.987094970703126,8.983044624328613,-1.0821791887283325,3.428496837615967
1789130063597102300,13.003102294921876,9.50498104095459,-0.42616790533065796,3.294421434402466
1789130063613112600,13.019112548828126,9.332598686218262,-0.7038952708244324,2.7293899059295654
1789130063629124000,13.0351240234375,8.652645111083984,-1.072602391242981,3.2130186557769775
1789130063645127400,13.05112744140625,9.672574996948242,-0.9050082564353943,3.203441858291626
1789130063661131000,13.067131103515624,9.615114212036133,-0.933738648891449,3.1220390796661377
1789130063677133800,13.0831337890625,9.457097053527832,-0.6703764796257019,3.179499864578247
1789130063693141500,13.0991416015625,9.548076629638672,-0.9433154463768005,3.270479440689087
1789130063709150500,13.115150390625,9.299078941345215,-0.727837324142456,3.0358476638793945
1789130063725156000,13.131156005859374,9.174580574035645,-0.933738648891449,3.2417490482330322
1789130063749158000,13.155157958984375,9.816226959228516,-1.259350061416626,3.4620156288146973
1789130063773164300,13.179164306640626,9.351752281188965,-0.9864110946655273,3.064578056335449
1789130063789175300,13.19517529296875,9.193734169006348,-1.0773907899856567,2.82515811920166
1789130063805186800,13.211186767578125,9.41400146484375,-0.8427590131759644,3.308786630630493
1789130063821192700,13.227192626953125,9.011775016784668,-0.9481038451194763,3.423708438873291
1789130063837202400,13.243202392578125,9.222464561462402,-1.1348515748977661,2.978386878967285
1789130063853207300,13.259207275390626,8.992621421813965,-1.316810965538025,2.8395233154296875
1789130063869213000,13.275212890625,8.69095230102539,-0.8858546018600464,3.117250680923462
1789130063885216000,13.291216064453126,9.615114212036133,-0.4836287498474121,3.2130186557769775
1789130063901226800,13.307226806640625,9.059659004211426,-1.1252747774124146,3.093308687210083
1789130063917235700,13.323235595703125,9.184157371520996,-0.8188169598579407,3.3662476539611816
1789130063933242000,13.3392421875,9.308655738830566,-0.7948749661445618,3.5051112174987793
1789130063949250600,13.35525048828125,9.02135181427002,-0.871489405632019,2.9735984802246094
1789130063965261600,13.371261474609375,8.954314231872559,-0.9433154463768005,3.227383852005005
1789130063981275400,13.387275390625,9.198522567749023,-0.7038952708244324,3.442862033843994
1789130063997289000,13.4032890625,9.53849983215332,-0.4165911078453064,3.2992098331451416
1789130064013298200,13.419298095703125,9.284713745117188,-0.35913026332855225,2.9448680877685547
1789130064029315300,13.4353154296875,8.863334655761719,-0.7565677165985107,3.246537446975708
1789130064045332200,13.451332275390625,9.730035781860352,-0.6991068720817566,3.624821424484253
1789130064061342200,13.46734228515625,9.265560150146484,-1.0342950820922852,3.6966474056243896
1789130064077353700,13.483353759765626,8.777143478393555,-0.9720458984375,3.4955344200134277
1789130064093370400,13.499370361328126,9.174580574035645,-0.7086837291717529,3.5482068061828613
1789130064109382100,13.515382080078124,8.987833023071289,-0.5746083855628967,3.6583402156829834
1789130064125392600,13.531392578125,9.045293807983398,-0.8762778043746948,3.6822822093963623
1789130064141404000,13.54740380859375,9.284713745117188,-0.8475474119186401,3.4620156288146973
1789130064157414400,13.563414306640626,8.604761123657227,-0.507570743560791,3.7876269817352295
1789130064173427000,13.579427001953125,8.99740982055664,-0.5602431893348694,3.5673606395721436
1789130064189443600,13.595443603515625,9.083600997924805,-0.8667010068893433,3.6296098232269287
1789130064205458700,13.611458740234376,8.983044624328613,-0.7565677165985107,3.4093432426452637
1789130064221473000,13.62747314453125,8.892065048217773,-0.8858546018600464,3.6727054119110107
1789130064237487000,13.643487060546875,8.705317497253418,-0.7948749661445618,3.1459810733795166
1789130064253497900,13.659497802734375,9.141061782836914,-0.7134721279144287,3.485957622528076
1789130064269505300,13.67550537109375,9.169792175292969,-0.6943184733390808,3.912125587463379
1789130064285513000,13.691512939453125,9.643844604492188,-0.43095630407333374,3.8115692138671875
1789130064301521700,13.707521728515625,9.289502143859863,-0.33518823981285095,3.5242648124694824
1789130064317532200,13.7235322265625,9.227252960205078,-0.6991068720817566,3.5721490383148193
1789130064333546000,13.7395458984375,9.442731857299805,-0.5267243981361389,3.691859006881714
1789130064349559600,13.7555595703125,8.9064302444458,-0.8619126081466675,3.6966474056243896
1789130064365571800,13.77157177734375,8.834604263305664,-0.5985504388809204,3.6296098232269287
1789130064381587200,13.787587158203126,9.289502143859863,-0.7134721279144287,3.5721490383148193
1789130064397599500,13.803599609375,8.944737434387207,-0.7661445140838623,3.825934410095215
1789130064413615400,13.819615478515624,9.160215377807617,-0.7948749661445618,3.8115692138671875
1789130064429626000,13.835626220703125,9.308655738830566,-0.9050082564353943,3.801992416381836
1789130064445638400,13.851638427734375,8.647856712341309,-0.7661445140838623,3.950432777404785
1789130064461647600,13.867647705078125,8.882488250732422,-0.871489405632019,4.165910720825195
1789130064477657600,13.88365771484375,9.011775016784668,-0.8667010068893433,4.23773717880249
1789130064493666000,13.899666015625,8.959102630615234,-1.2449848651885986,3.840299606323242
1789130064509681200,13.91568115234375,8.786720275878906,-1.4844050407409668,3.529053211212158
1789130064525692400,13.9316923828125,8.667010307312012,-0.8571242094039917,3.936067581176758
1789130064541703000,13.947702880859374,8.825027465820312,-0.7038952708244324,4.0749311447143555
1789130064557708500,13.96370849609375,9.351752281188965,-0.7182605266571045,3.734954595565796
1789130064573723400,13.979723388671875,9.53849983215332,-0.6416460275650024,4.084507942199707
1789130064589740000,13.995739990234375,9.361329078674316,-0.7852981686592102,4.357447147369385
1789130064605756400,14.01175634765625,9.801861763000488,-0.3734954595565796,4.213795185089111
1789130064621771000,14.02777099609375,9.217676162719727,-0.3734954595565796,4.271255970001221
1789130064637789200,14.0437890625,8.791508674621582,-0.5315127968788147,4.501099109649658
1789130064653812000,14.05981201171875,9.08838939666748,-0.6607996821403503,4.304774761199951
1789130064669832000,14.07583203125,8.753201484680176,-0.9385270476341248,4.314351558685303
1789130064685851600,14.0918515625,8.53293514251709,-0.8331822156906128,4.4723687171936035
1789130064701867800,14.10786767578125,8.89685344696045,-0.5410895943641663,4.405331134796143
1789130064717886000,14.123885986328125,9.002198219299316,-0.6847416758537292,4.390965938568115
1789130064741908200,14.147908203125,9.064447402954102,-0.6416460275650024,4.548983097076416
1789130064757921000,14.163921142578126,8.56645393371582,-0.3256114423274994,4.280832767486572
1789130064773936400,14.179936279296875,7.9631147384643555,-0.7565677165985107,4.146757125854492
1789130064789949000,14.195948974609376,7.738059997558594,-0.569819986820221,4.5154643058776855
1789130064805961700,14.211961669921875,8.56645393371582,-0.2968810200691223,4.63517427444458
1789130064821968600,14.22796875,8.202534675598145,-0.29209262132644653,4.462791919708252
1789130064837976300,14.243976318359374,8.738836288452148,-0.19632454216480255,4.534617900848389
1789130064853992400,14.259992431640624,8.508993148803711,-0.2059013396501541,4.5825018882751465
1789130064870008600,14.276008544921876,8.604761123657227,-0.5171475410461426,4.750096321105957
1789130064886025000,14.29202490234375,8.80587387084961,-0.9720458984375,4.922478675842285
1789130064902044000,14.3080439453125,8.853757858276367,-1.0534487962722778,5.080495834350586
1789130064918057500,14.324057373046875,9.385271072387695,-1.1971008777618408,4.165910720825195
1789130064934075000,14.340074951171875,8.365341186523438,-0.019153613597154617,5.166687488555908
1789130064950091000,14.356091064453125,8.920795440673828,-0.17238251864910126,4.745307922363281
1789130064966108200,14.372108154296875,9.078812599182129,-0.5746083855628967,4.525041103363037
1789130064982122200,14.388122314453126,9.461885452270508,-0.5841852426528931,4.841075897216797
1789130064998131200,14.404131103515626,9.44752025604248,-0.8906430602073669,4.774038314819336
1789130065014141400,14.420141357421874,8.868123054504395,-0.5219359993934631,4.6734819412231445
1789130065030153000,14.436153076171875,9.117119789123535,-0.14365209639072418,4.8937482833862305
1789130065046162200,14.452162109375,9.208099365234375,-0.43095630407333374,4.788403511047363
1789130065062177800,14.468177734375,9.030928611755371,-0.6799532771110535,4.639962673187256
1789130065078193700,14.484193603515624,8.547300338745117,0.038307227194309235,4.616020679473877
1789130065094209000,14.500208984375,9.035717010498047,-0.07661445438861847,4.697423934936523
1789130065110221800,14.516221923828125,8.56645393371582,-0.31124621629714966,4.563348293304443
1789130065126230500,14.53223046875,8.825027465820312,0.2968810200691223,4.774038314819336
1789130065142239700,14.54823974609375,8.944737434387207,0.3016694188117981,4.817133903503418
1789130065158256600,14.564256591796875,8.935160636901855,0.6224924325942993,4.7405195236206055
1789130065174270200,14.580270263671874,9.016563415527344,0.019153613597154617,4.764461517333984
1789130065190280000,14.596280029296874,8.647856712341309,0.16759411990642548,4.548983097076416
1789130065206284800,14.612284912109375,8.638279914855957,0.3926490843296051,4.525041103363037
1789130065222294800,14.628294677734376,9.026140213012695,0.29209262132644653,4.266467571258545
1789130065238301700,14.6443017578125,8.197746276855469,0.42616790533065796,4.879383087158203
1789130065254308400,14.660308349609375,8.494627952575684,0.2346317619085312,4.424484729766846
1789130065270314800,14.676314697265624,8.38449478149414,0.1388636976480484,5.066130638122559
1789130065286325200,14.6923251953125,8.935160636901855,0.16759411990642548,4.587290287017822
1789130065302340600,14.708340576171874,8.743624687194824,0.033518824726343155,4.659116744995117
1789130065318354700,14.724354736328126,8.604761123657227,0.08619125932455063,4.850652694702148
1789130065334371300,14.740371337890625,8.87291145324707,0.14844051003456116,4.41969633102417
1789130065350382300,14.75638232421875,8.868123054504395,0.090979665517807,4.850652694702148
1789130065366391800,14.772391845703124,8.829815864562988,0.12449848651885986,4.9368438720703125
1789130065382404400,14.788404296875,8.99740982055664,0.08140286058187485,4.745307922363281
1789130065398412500,14.80441259765625,9.619902610778809,-0.019153613597154617,4.639962673187256
1789130065414423000,14.820423095703125,8.422801971435547,0.10055647045373917,5.434837818145752
1789130065430438000,14.83643798828125,8.552088737487793,-0.14365209639072418,5.343858242034912
1789130065446449400,14.852449462890625,8.83939266204834,-0.31124621629714966,5.190629482269287
1789130065462464500,14.868464599609375,8.719682693481445,0.038307227194309235,5.363011837005615
1789130065478478800,14.884478759765624,8.628703117370605,-0.3256114423274994,5.353435039520264
1789130065494488600,14.900488525390625,8.949525833129883,-0.6224924325942993,5.377377033233643
1789130065510500000,14.9165,8.192957878112793,-0.1867477297782898,5.793968200683594
1789130065526510800,14.9325107421875,8.825027465820312,0.14844051003456116,5.540182590484619
1789130065542519000,14.94851904296875,8.944737434387207,-0.14365209639072418,5.353435039520264
1789130065558531600,14.964531494140624,8.676587104797363,0.3878606855869293,5.746084213256836
1789130065574540300,14.980540283203124,9.035717010498047,0.37828385829925537,5.477933406829834
1789130065590549000,14.996549072265625,8.619126319885254,-0.1149216815829277,5.224148273468018
1789130065606558200,15.01255810546875,8.35097599029541,0.11013327538967133,5.51624059677124
1789130065622569000,15.02856884765625,8.523358345031738,-0.05267243832349777,5.463568210601807
1789130065638579500,15.044579345703125,8.59997272491455,-0.12928688526153564,5.243301868438721
1789130065654590000,15.06058984375,8.456320762634277,0.08140286058187485,5.319916248321533
1789130065670600700,15.0766005859375,8.576030731201172,0.1867477297782898,5.20978307723999
1789130065686613800,15.09261376953125,8.796297073364258,0.3064578175544739,5.070919036865234
1789130065702628400,15.10862841796875,8.398859977722168,0.08619125932455063,5.310339450836182
1789130065718641000,15.124640869140626,8.643068313598633,0.19632454216480255,5.2480902671813965
1789130065742657500,15.148657470703125,8.513781547546387,0.14365209639072418,5.272032260894775
1789130065758668800,15.164668701171875,8.53293514251709,0.07661445438861847,4.903325080871582
1789130065774683100,15.18068310546875,8.571242332458496,0.1867477297782898,5.0900726318359375
1789130065790694100,15.196694091796875,8.676587104797363,0.2059013396501541,5.195417881011963
1789130065806705200,15.212705078125,8.604761123657227,0.12449848651885986,5.080495834350586
1789130065822714000,15.228714111328125,8.59997272491455,0.12449848651885986,4.989516258239746
1789130065838717400,15.244717529296874,8.422801971435547,0.11013327538967133,5.238513469696045
1789130065854723800,15.260723876953126,8.633491516113281,0.15801730751991272,5.142745018005371
1789130065870728400,15.276728515625,8.547300338745117,-0.019153613597154617,5.1331682205200195
1789130065886733000,15.292733154296876,8.5903959274292,0.1628057211637497,5.051765441894531
1789130065902739200,15.3087392578125,8.485051155090332,0.1628057211637497,4.879383087158203
1789130065918748400,15.32474853515625,8.571242332458496,0.11013327538967133,4.9368438720703125
1789130065934761700,15.34076171875,8.556877136230469,0.19153612852096558,5.085284233093262
1789130065950776600,15.356776611328126,8.470685958862305,-0.2106897532939911,4.8602294921875
1789130065966788000,15.3727880859375,8.504204750061035,0.014365210197865963,4.908113479614258
1789130065982797800,15.3887978515625,8.480262756347656,-0.24899697303771973,5.185841083526611
1789130065998807800,15.404807861328125,8.604761123657227,-0.2585737705230713,4.745307922363281
1789130066014811600,15.420811767578124,8.576030731201172,-0.090979665517807,5.137956619262695
1789130066030815000,15.43681494140625,8.801085472106934,0.10055647045373917,4.9799394607543945
1789130066046820600,15.452820556640624,9.035717010498047,0.15322890877723694,4.778826713562012
1789130066062826000,15.468825927734375,8.379706382751465,0.1149216815829277,5.17626428604126
1789130066078832400,15.484832275390625,8.954314231872559,-0.08619125932455063,4.912901878356934
1789130066094839600,15.500839599609375,9.059659004211426,0.1388636976480484,5.018246650695801
1789130066110848000,15.516847900390625,8.968679428100586,0.09576806426048279,4.8937482833862305
1789130066126863600,15.532863525390624,8.719682693481445,-0.181959331035614,5.061342239379883
1789130066142878500,15.54887841796875,9.121908187866211,0.023942016065120697,5.0900726318359375
1789130066158892000,15.56489208984375,8.796297073364258,0.20111294090747833,5.066130638122559
1789130066174908000,15.580907958984374,8.767566680908203,0.023942016065120697,4.850652694702148
1789130066190922000,15.596921875,8.868123054504395,0.2968810200691223,4.903325080871582
1789130066206944300,15.6129443359375,8.777143478393555,-0.023942016065120697,5.080495834350586
1789130066222964700,15.62896484375,8.848969459533691,-0.043095629662275314,4.620809078216553
1789130066238979300,15.644979248046875,8.513781547546387,0.26336219906806946,4.955997467041016
1789130066254990800,15.660990966796875,8.987833023071289,-0.043095629662275314,5.032611846923828
1789130066271001000,15.6770009765625,8.719682693481445,0.10534487664699554,4.807557106018066
1789130066287018000,15.69301806640625,8.652645111083984,0.15801730751991272,4.869806289672852
1789130066303031800,15.70903173828125,8.609549522399902,0.2585737705230713,4.711789131164551
1789130066319043600,15.725043701171876,8.9064302444458,0,4.6734819412231445
1789130066335052800,15.741052734375,8.5903959274292,-0.028730420395731926,4.869806289672852
1789130066351059200,15.75705908203125,8.705317497253418,0.023942016065120697,4.711789131164551
1789130066367070700,15.77307080078125,8.580819129943848,0.004788403399288654,4.812345504760742
1789130066383080200,15.789080078125,8.892065048217773,0.033518824726343155,4.525041103363037
1789130066399094800,15.8050947265625,8.580819129943848,0.038307227194309235,4.644751071929932
1789130066415102500,15.8211025390625,8.901641845703125,0.043095629662275314,4.98472785949707
1789130066431115300,15.837115234375,8.743624687194824,0,4.707000732421875
1789130066447125500,15.85312548828125,8.863334655761719,0,4.60165548324585
1789130066463133400,15.869133544921874,8.791508674621582,0.009576806798577309,4.821922302246094
1789130066479142100,15.88514208984375,8.93037223815918,-0.004788403399288654,4.764461517333984
1789130066495148000,15.90114794921875,9.02135181427002,0.09576806426048279,4.716577529907227
1789130066511153400,15.9171533203125,8.681375503540039,0.21547815203666687,4.716577529907227
1789130066527159800,15.933159912109375,8.801085472106934,-0.004788403399288654,4.7405195236206055
1789130066543171300,15.94917138671875,8.959102630615234,0.22026655077934265,4.553771495819092
1789130066559180300,15.96518017578125,8.643068313598633,0.19153612852096558,4.774038314819336
1789130066575189000,15.98118896484375,8.777143478393555,-0.10055647045373917,4.836287498474121
1789130066591199500,15.997199462890626,8.944737434387207,-0.11971008777618408,4.4723687171936035
1789130066607207700,16.013207763671875,9.002198219299316,0.33518823981285095,4.520252704620361
1789130066623213800,16.0292138671875,8.825027465820312,0.12928688526153564,4.730942726135254
1789130066639218700,16.04521875,8.916007041931152,0.12449848651885986,4.6255974769592285
1789130066655225900,16.061225830078126,8.815450668334961,0.12449848651885986,4.501099109649658
1789130066671236900,16.07723681640625,8.508993148803711,0.009576806798577309,4.702212333679199
1789130066687249000,16.093248779296875,9.107542991638184,0.2059013396501541,4.692635536193848
1789130066703255000,16.109255126953126,8.848969459533691,0.1628057211637497,4.697423934936523
1789130066719261200,16.12526123046875,8.882488250732422,0.13407529890537262,4.620809078216553
1789130066735272000,16.14127197265625,8.959102630615234,0.24420857429504395,4.4292731285095215
1789130066759285000,16.165284912109374,9.078812599182129,0.16759411990642548,4.639962673187256
1789130066775296300,16.181296142578127,8.686163902282715,0.08140286058187485,4.687847137451172
1789130066791302700,16.197302734375,8.734047889709473,0.17238251864910126,4.687847137451172
1789130066807313000,16.21331298828125,8.944737434387207,0.181959331035614,4.371812343597412
1789130066823326700,16.22932666015625,8.916007041931152,-0.028730420395731926,4.525041103363037
1789130066839337000,16.2453369140625,8.743624687194824,-0.033518824726343155,4.4292731285095215
1789130066855349200,16.261349365234373,8.911218643188477,0.13407529890537262,4.616020679473877
1789130066871358500,16.2773583984375,8.734047889709473,0.14844051003456116,4.687847137451172
1789130066887368700,16.29336865234375,8.882488250732422,0.06703764945268631,4.587290287017822
1789130066903384000,16.309384033203123,8.920795440673828,-0.028730420395731926,4.721365928649902
1789130066919397400,16.3253974609375,8.662221908569336,-0.05746084079146385,4.865017890930176
1789130066935414300,16.341414306640626,8.767566680908203,-0.014365210197865963,4.955997467041016
1789130066951426300,16.35742626953125,8.9064302444458,0,4.850652694702148
1789130066967430400,16.373430419921874,8.633491516113281,0.05267243832349777,5.023035049438477
1789130066983437600,16.3894375,8.796297073364258,0.028730420395731926,4.898536682128906
1789130066999442000,16.40544189453125,8.710105895996094,-0.05267243832349777,4.946420669555664
1789130067015445200,16.4214453125,8.7484130859375,0.07661445438861847,4.994304656982422
1789130067031448300,16.4374482421875,8.767566680908203,0.06703764945268631,5.066130638122559
1789130067047455200,16.453455322265626,8.652645111083984,-0.004788403399288654,4.994304656982422
1789130067063467000,16.469467041015626,8.834604263305664,-0.009576806798577309,5.051765441894531
1789130067079484000,16.48548388671875,8.633491516113281,0.14844051003456116,4.999093055725098
1789130067095496700,16.50149658203125,8.561665534973145,0.06703764945268631,5.1810526847839355
1789130067111510000,16.517510009765626,8.791508674621582,-0.009576806798577309,5.085284233093262
1789130067127520500,16.5335205078125,8.65743350982666,0.1149216815829277,4.965574264526367
1789130067143531000,16.549531005859375,8.7484130859375,0.07661445438861847,5.056553840637207
1789130067159539500,16.56553955078125,8.69095230102539,0.06703764945268631,4.9368438720703125
1789130067175540200,16.581540283203125,8.777143478393555,0.16759411990642548,4.879383087158203
1789130067191544600,16.597544677734376,8.87291145324707,0.090979665517807,4.898536682128906
1789130067207557000,16.61355712890625,8.667010307312012,0.2346317619085312,4.8602294921875
1789130067223571500,16.629571533203126,8.80587387084961,0.1388636976480484,4.869806289672852
1789130067239582000,16.64558203125,8.738836288452148,0.11971008777618408,4.759673118591309
1789130067255591700,16.661591796875,8.753201484680176,0.22505496442317963,4.836287498474121
1789130067271599600,16.677599609375,8.80587387084961,0.17717093229293823,4.654327869415283
1789130067287605200,16.693605224609374,8.87291145324707,0.11013327538967133,4.649539470672607
1789130067303618300,16.709618408203124,8.772355079650879,0.10055647045373917,4.606443881988525
1789130067319631000,16.725631103515624,8.887276649475098,0.11971008777618408,4.467580318450928
1789130067335645700,16.741645751953126,8.959102630615234,0.07182604819536209,4.405331134796143
1789130067351659800,16.75765966796875,8.815450668334961,0.07182604819536209,4.390965938568115
1789130067367670500,16.77367041015625,8.935160636901855,0.07182604819536209,4.261679172515869
1789130067383682600,16.7896826171875,8.99740982055664,0.043095629662275314,4.194641590118408
1789130067399694000,16.805694091796877,8.892065048217773,0.06703764945268631,4.266467571258545
1789130067415709700,16.821709716796875,9.064447402954102,0.05267243832349777,4.055777549743652
1789130067431724300,16.837724365234376,9.150638580322266,0,3.801992416381836
1789130067447733800,16.853733642578124,9.002198219299316,-0.028730420395731926,3.9456443786621094
1789130067463744300,16.869744140625,9.05487060546875,0.019153613597154617,3.8977603912353516
1789130067479754800,16.885754638671877,9.232041358947754,0.05267243832349777,3.5913026332855225
1789130067495765000,16.901764892578125,9.275136947631836,-0.014365210197865963,3.581725835800171
1789130067511774200,16.917774169921874,9.165003776550293,-0.047884032130241394,3.600879430770874
1789130067527786800,16.933786865234374,9.165003776550293,0.014365210197865963,3.6343982219696045
1789130067543796500,16.94979638671875,9.17936897277832,0.014365210197865963,3.581725835800171
1789130067559803000,16.965802978515626,9.337387084960938,0.009576806798577309,3.337517261505127
1789130067575810000,16.98181005859375,9.299078941345215,-0.009576806798577309,3.337517261505127
1789130067591814100,16.997814208984376,9.217676162719727,-0.004788403399288654,3.4572272300720215
1789130067607818800,17.01381884765625,9.241618156433105,0.023942016065120697,3.404554843902588
1789130067623825200,17.0298251953125,9.23682975769043,0.043095629662275314,3.3423056602478027
1789130067639832600,17.04583251953125,9.23682975769043,0.028730420395731926,3.313575267791748
1789130067655849200,17.06184912109375,9.337387084960938,0.028730420395731926,3.1507694721221924
1789130067671864600,17.077864501953126,9.32302188873291,0.009576806798577309,3.1220390796661377
1789130067687872800,17.093872802734374,9.184157371520996,0.014365210197865963,3.1938650608062744
1789130067703886000,17.109885986328123,9.255983352661133,0.047884032130241394,3.1699230670928955
1789130067719892000,17.12589208984375,9.23682975769043,0.07182604819536209,3.141192674636841
1789130067735896800,17.141896728515626,9.241618156433105,0.047884032130241394,3.1316158771514893
1789130067759900700,17.165900634765624,9.227252960205078,0.06224924325942993,3.1268274784088135
1789130067775907000,17.181906982421875,9.232041358947754,0.08140286058187485,3.069366693496704
1789130067791917600,17.19791748046875,9.227252960205078,0.05746084079146385,3.0406360626220703
1789130067807930400,17.213930419921876,9.217676162719727,0.05746084079146385,3.045424461364746
1789130067823948500,17.229948486328126,9.246406555175781,0.07661445438861847,3.002328872680664
1789130067839959600,17.24595947265625,9.246406555175781,0.05746084079146385,2.9735984802246094
1789130067855970300,17.26197021484375,9.232041358947754,0.05267243832349777,2.9927520751953125
1789130067871988500,17.277988525390626,9.232041358947754,0.043095629662275314,3.0406360626220703
1789130067888005400,17.29400537109375,9.23682975769043,0.06703764945268631,3.050212860107422
1789130067904019700,17.310019775390625,9.279925346374512,0.047884032130241394,3.0550012588500977
1789130067920036000,17.3260361328125,9.308655738830566,0.028730420395731926,2.9927520751953125
1789130067936045800,17.3420458984375,9.32302188873291,0.028730420395731926,3.021482467651367
1789130067952049700,17.358049560546874,9.370905876159668,-0.004788403399288654,2.964021682739258
1789130067968059600,17.3740595703125,9.375694274902344,-0.004788403399288654,2.940079689025879
1789130067984064500,17.390064453125,9.428366661071777,0,2.8586769104003906
1789130068000078600,17.40607861328125,9.509769439697266,0,2.762908697128296
1789130068016092400,17.422092529296876,9.481039047241211,-0.009576806798577309,2.676717519760132
1789130068032102400,17.438102294921876,9.500192642211914,-0.014365210197865963,2.5761611461639404
1789130068048106800,17.454106689453123,9.490615844726562,-0.014365210197865963,2.5522189140319824
1789130068064109000,17.470109130859374,9.466673851013184,-0.009576806798577309,2.5665841102600098
1789130068080117000,17.486116943359374,9.452308654785156,0,2.499546527862549
1789130068096120300,17.502120361328124,9.490615844726562,-0.004788403399288654,2.470816135406494
1789130068112122600,17.51812255859375,9.495404243469238,-0.009576806798577309,2.451662540435791
1789130068128122600,17.53412255859375,9.44752025604248,0.004788403399288654,2.451662540435791
1789130068144119600,17.55011962890625,9.461885452270508,-0.009576806798577309,2.427720546722412
1789130068160124400,17.56612451171875,9.457097053527832,-0.009576806798577309,2.4803929328918457
1789130068176133600,17.582133544921874,9.461885452270508,0,2.4803929328918457
1789130068192141300,17.598141357421873,9.457097053527832,0.004788403399288654,2.499546527862549
1789130068208151000,17.614151123046874,9.423578262329102,0.019153613597154617,2.5043349266052246
1789130068224158200,17.630158203125,9.409213066101074,0.019153613597154617,2.5282769203186035
1789130068240164600,17.64616455078125,9.390059471130371,0.019153613597154617,2.5761611461639404
1789130068256169700,17.662169677734376,9.366117477416992,0.028730420395731926,2.6001031398773193
1789130068272171800,17.678171875,9.375694274902344,0.014365210197865963,2.5905263423919678
1789130068288179000,17.694178955078126,9.385271072387695,0.019153613597154617,2.6192567348480225
1789130068304184300,17.710184326171873,9.399636268615723,0.019153613597154617,2.6240451335906982
1789130068320187400,17.7261875,9.404424667358398,0.023942016065120697,2.6575639247894287
1789130068344191700,17.750191650390626,9.418789863586426,0.023942016065120697,2.671929121017456
1789130068360201000,17.766200927734374,9.461885452270508,0.004788403399288654,2.671929121017456
1789130068376200400,17.782200439453124,9.50498104095459,0.009576806798577309,2.6671407222747803
1789130068392197600,17.79819775390625,9.509769439697266,0.009576806798577309,2.671929121017456
1789130068408199400,17.814199462890624,9.466673851013184,0.019153613597154617,2.6815059185028076
1789130068424201700,17.83020166015625,9.485827445983887,0.009576806798577309,2.6671407222747803
1789130068440204300,17.846204345703125,9.452308654785156,0,2.6815059185028076
1789130068456210000,17.8622099609375,9.457097053527832,0.019153613597154617,2.6575639247894287
1789130068472215600,17.878215576171876,9.41400146484375,0.014365210197865963,2.6575639247894287
1789130068488222000,17.894221923828123,9.41400146484375,-0.004788403399288654,2.628833532333374
1789130068504226800,17.910226806640626,9.394847869873047,0.019153613597154617,2.609679937362671
1789130068520231000,17.92623095703125,9.375694274902344,0,2.5905263423919678
1789130068536235300,17.9422353515625,9.385271072387695,0.004788403399288654,2.5761611461639404
1789130068552245200,17.958245361328125,9.38048267364502,0,2.5522189140319824
1789130068568248300,17.974248291015623,9.385271072387695,0.004788403399288654,2.5474305152893066
1789130068584248000,17.990248046875,9.394847869873047,-0.009576806798577309,2.5282769203186035
1789130068600250400,18.00625048828125,9.409213066101074,-0.014365210197865963,2.5522189140319824
1789130068616247000,18.0222470703125,9.452308654785156,0,2.5665841102600098
1789130068632248600,18.03824853515625,9.452308654785156,0.009576806798577309,2.561795711517334
1789130068648251400,18.05425146484375,9.490615844726562,0.009576806798577309,2.6001031398773193
1789130068664256500,18.070256591796873,9.490615844726562,0.009576806798577309,2.6192567348480225
1789130068680265200,18.08626513671875,9.481039047241211,0.009576806798577309,2.63362193107605
1789130068696269000,18.10226904296875,9.47146224975586,0,2.671929121017456
1789130068712273700,18.118273681640623,9.476250648498535,0.023942016065120697,2.676717519760132
1789130068728278000,18.134278076171874,9.423578262329102,0.009576806798577309,2.676717519760132
1789130068744283000,18.150282958984373,9.457097053527832,0.033518824726343155,2.6815059185028076
1789130068760287700,18.166287841796876,9.409213066101074,0.019153613597154617,2.6623523235321045
1789130068776295000,18.182294921875,9.41400146484375,0.014365210197865963,2.6671407222747803
1789130068792303400,18.198303466796876,9.370905876159668,0.014365210197865963,2.6671407222747803
1789130068808314000,18.214314208984376,9.394847869873047,0.009576806798577309,2.647987127304077
1789130068824321800,18.23032177734375,9.38048267364502,0.019153613597154617,2.6384103298187256
1789130068840333300,18.246333251953125,9.385271072387695,0.023942016065120697,2.609679937362671
1789130068856338700,18.262338623046876,9.404424667358398,0.009576806798577309,2.63362193107605
1789130068872343000,18.278343017578123,9.409213066101074,0.004788403399288654,2.6001031398773193
1789130068888346600,18.2943466796875,9.418789863586426,0.004788403399288654,2.6192567348480225
1789130068904354600,18.3103544921875,9.452308654785156,0.004788403399288654,2.604891538619995
1789130068920359700,18.326359619140625,9.442731857299805,0.004788403399288654,2.604891538619995
1789130068936366600,18.34236669921875,9.461885452270508,0.014365210197865963,2.580949544906616
1789130068952372500,18.35837255859375,9.44752025604248,0.014365210197865963,2.585737943649292
1789130068968380700,18.374380615234376,9.452308654785156,-0.004788403399288654,2.5905263423919678
1789130068984390000,18.390389892578124,9.461885452270508,-0.009576806798577309,2.5953147411346436
1789130069000392700,18.406392822265627,9.442731857299805,0,2.6001031398773193
1789130069016397000,18.42239697265625,9.452308654785156,0.014365210197865963,2.6240451335906982
1789130069032398600,18.438398681640624,9.409213066101074,0.009576806798577309,2.609679937362671
1789130069048405500,18.454405517578124,9.433155059814453,0,2.647987127304077
1789130069064417800,18.470417724609376,9.418789863586426,-0.004788403399288654,2.6431987285614014
1789130069080428800,18.4864287109375,9.418789863586426,0.004788403399288654,2.652775526046753
1789130069096434200,18.50243408203125,9.418789863586426,0.009576806798577309,2.6575639247894287
1789130069112439000,18.51843896484375,9.399636268615723,0.023942016065120697,2.6575639247894287
1789130069128445000,18.53444482421875,9.404424667358398,0.014365210197865963,2.6815059185028076
1789130069144448500,18.550448486328126,9.399636268615723,0.009576806798577309,2.647987127304077
1789130069160455700,18.56645556640625,9.428366661071777,0.019153613597154617,2.6623523235321045
1789130069176460000,18.5824599609375,9.428366661071777,0.019153613597154617,2.6384103298187256
1789130069192461300,18.59846142578125,9.423578262329102,0.019153613597154617,2.6384103298187256
1789130069208462600,18.614462646484377,9.428366661071777,0.028730420395731926,2.609679937362671
1789130069224466400,18.630466552734376,9.44752025604248,0.009576806798577309,2.6240451335906982
1789130069240465200,18.646465087890626,9.461885452270508,0.019153613597154617,2.6192567348480225
1789130069256465000,18.66246484375,9.461885452270508,0.014365210197865963,2.609679937362671
1789130069272469200,18.67846923828125,9.461885452270508,0.014365210197865963,2.5905263423919678
1789130069288471000,18.694470947265625,9.437943458557129,0.009576806798577309,2.609679937362671
1789130069304476000,18.710475830078124,9.44752025604248,0.009576806798577309,2.5905263423919678
1789130069320478200,18.726478271484375,9.442731857299805,0.014365210197865963,2.6001031398773193
1789130069336476400,18.742476318359376,9.433155059814453,0.019153613597154617,2.585737943649292
1789130069352482800,18.75848291015625,9.418789863586426,0.009576806798577309,2.604891538619995
1789130069368493600,18.77449365234375,9.423578262329102,0.009576806798577309,2.6144683361053467
1789130069384504000,18.790504150390625,9.409213066101074,0.004788403399288654,2.6240451335906982
1789130069400512800,18.8065126953125,9.418789863586426,0.009576806798577309,2.628833532333374
1789130069416521700,18.822521728515625,9.41400146484375,-0.004788403399288654,2.6384103298187256
1789130069432536000,18.8385361328125,9.41400146484375,0.009576806798577309,2.628833532333374
1789130069448546600,18.854546630859375,9.418789863586426,0,2.6384103298187256
1789130069464557600,18.8705576171875,9.437943458557129,0.014365210197865963,2.63362193107605
1789130069480570400,18.8865703125,9.433155059814453,0.014365210197865963,2.6384103298187256
1789130069496590300,18.90259033203125,9.452308654785156,0.014365210197865963,2.6384103298187256
1789130069512607200,18.918607177734376,9.44752025604248,0.009576806798577309,2.652775526046753
1789130069528624400,18.934624267578126,9.452308654785156,0.014365210197865963,2.647987127304077
1789130069544635400,18.950635498046875,9.442731857299805,0,2.647987127304077
1789130069560642800,18.966642822265626,9.442731857299805,0,2.6192567348480225
1789130069576653600,18.982653564453123,9.428366661071777,0,2.6384103298187256
1789130069592664600,18.99866455078125,9.44752025604248,0.009576806798577309,2.5953147411346436
1789130069608677000,19.014677001953125,9.437943458557129,0.004788403399288654,2.5905263423919678
1789130069624688600,19.030688720703125,9.428366661071777,-0.004788403399288654,2.580949544906616
1789130069640703700,19.046703857421875,9.41400146484375,0.014365210197865963,2.5953147411346436
1789130069656717300,19.06271728515625,9.423578262329102,0.014365210197865963,2.585737943649292
1789130069672728300,19.078728271484376,9.404424667358398,0.019153613597154617,2.6001031398773193
1789130069688743400,19.094743408203126,9.423578262329102,0.033518824726343155,2.5953147411346436
1789130069704752600,19.110752685546874,9.418789863586426,0.019153613597154617,2.609679937362671
1789130069720766700,19.1267666015625,9.423578262329102,0.023942016065120697,2.6192567348480225
1789130069736779500,19.142779541015624,9.418789863586426,0.019153613597154617,2.6240451335906982
1789130069760788000,19.1667880859375,9.41400146484375,0.014365210197865963,2.63362193107605
1789130069776797400,19.18279736328125,9.433155059814453,0.004788403399288654,2.628833532333374
1789130069792807400,19.198807373046876,9.428366661071777,0.019153613597154617,2.628833532333374
1789130069808820000,19.214820068359376,9.44752025604248,0.019153613597154617,2.63362193107605
1789130069824822800,19.23082275390625,9.433155059814453,0.004788403399288654,2.6431987285614014
1789130069840833000,19.2468330078125,9.461885452270508,0.014365210197865963,2.6384103298187256
1789130069856843000,19.262843017578124,9.442731857299805,0,2.6384103298187256
1789130069872855600,19.27885546875,9.433155059814453,0,2.63362193107605
1789130069888869000,19.294869140625,9.409213066101074,-0.009576806798577309,2.628833532333374
1789130069904882000,19.3108818359375,9.442731857299805,0.004788403399288654,2.604891538619995
1789130069920895700,19.326895751953124,9.442731857299805,0,2.6192567348480225
1789130069936912000,19.342911865234374,9.423578262329102,0.004788403399288654,2.6001031398773193
1789130069952924000,19.358923828125,9.41400146484375,0.014365210197865963,2.6001031398773193
1789130069968932400,19.374932373046875,9.418789863586426,0.009576806798577309,2.604891538619995
1789130069984936200,19.390936279296874,9.418789863586426,0.004788403399288654,2.5953147411346436
1789130070000948000,19.406947998046874,9.418789863586426,-0.004788403399288654,2.580949544906616
1789130070016959700,19.422959716796875,9.409213066101074,0.004788403399288654,2.604891538619995
1789130070032978000,19.43897802734375,9.41400146484375,0.004788403399288654,2.609679937362671
1789130070048994300,19.454994384765627,9.423578262329102,-0.009576806798577309,2.6144683361053467
1789130070065007400,19.47100732421875,9.44752025604248,0,2.5905263423919678
1789130070081023000,19.48702294921875,9.442731857299805,0.004788403399288654,2.628833532333374
1789130070097039600,19.50303955078125,9.461885452270508,0,2.6144683361053467
1789130070113051000,19.51905078125,9.442731857299805,0.004788403399288654,2.63362193107605
1789130070129057300,19.535057373046875,9.457097053527832,0,2.6192567348480225
1789130070145066000,19.55106591796875,9.44752025604248,0,2.652775526046753
1789130070161069600,19.567069580078126,9.461885452270508,0.009576806798577309,2.6384103298187256
1789130070177075700,19.58307568359375,9.423578262329102,0.014365210197865963,2.6431987285614014
1789130070193081900,19.599081787109377,9.442731857299805,0,2.63362193107605
1789130070209090300,19.61509033203125,9.418789863586426,0,2.6384103298187256
1789130070225095000,19.631094970703124,9.423578262329102,0.028730420395731926,2.6240451335906982
1789130070241107000,19.64710693359375,9.41400146484375,0.019153613597154617,2.63362193107605
1789130070265125400,19.67112548828125,9.394847869873047,0.009576806798577309,2.6192567348480225
1789130070281134300,19.68713427734375,9.41400146484375,0.023942016065120697,2.609679937362671
1789130070297139700,19.7031396484375,9.399636268615723,0.009576806798577309,2.609679937362671
1789130070313146600,19.719146728515625,9.433155059814453,0.014365210197865963,2.5953147411346436
1789130070329157400,19.735157470703125,9.452308654785156,0.014365210197865963,2.6001031398773193
1789130070345161000,19.751160888671876,9.442731857299805,0.019153613597154617,2.6192567348480225
1789130070361166600,19.76716650390625,9.452308654785156,0.009576806798577309,2.604891538619995
1789130070377179600,19.7831796875,9.452308654785156,0.019153613597154617,2.6144683361053467
1789130070393188900,19.79918896484375,9.461885452270508,0.014365210197865963,2.6192567348480225
1789130070409205800,19.815205810546875,9.442731857299805,-0.009576806798577309,2.580949544906616
1789130070425213700,19.831213623046875,9.437943458557129,-0.009576806798577309,2.609679937362671
1789130070441228500,19.847228515625,9.442731857299805,-0.004788403399288654,2.604891538619995
1789130070457245400,19.863245361328126,9.423578262329102,0,2.628833532333374
1789130070473250600,19.87925048828125,9.428366661071777,-0.004788403399288654,2.6192567348480225
1789130070489260500,19.895260498046873,9.404424667358398,-0.004788403399288654,2.628833532333374
1789130070505275000,19.91127490234375,9.423578262329102,-0.009576806798577309,2.628833532333374
1789130070521283800,19.927283935546875,9.423578262329102,-0.009576806798577309,2.628833532333374
1789130070537291800,19.943291748046875,9.409213066101074,0.004788403399288654,2.6240451335906982
1789130070553291000,19.959291015625,9.409213066101074,0,2.628833532333374
1789130070569293800,19.9752939453125,9.437943458557129,0,2.6192567348480225
1789130070585298200,19.991298095703126,9.452308654785156,-0.009576806798577309,2.6384103298187256
1789130070601303800,20.0073037109375,9.44752025604248,0.004788403399288654,2.6192567348480225
1789130070617308400,20.023308349609376,9.423578262329102,0,2.6240451335906982
1789130070633312800,20.039312744140624,9.442731857299805,0.019153613597154617,2.609679937362671
1789130070649311000,20.05531103515625,9.437943458557129,0.014365210197865963,2.609679937362671
1789130070665312000,20.07131201171875,9.461885452270508,0,2.6001031398773193
1789130070681322500,20.087322509765624,9.442731857299805,0.009576806798577309,2.5953147411346436
1789130070697330200,20.103330078125,9.44752025604248,0.028730420395731926,2.604891538619995
1789130070713333500,20.11933349609375,9.452308654785156,0.019153613597154617,2.604891538619995
1789130070729340400,20.13534033203125,9.442731857299805,0.009576806798577309,2.5953147411346436
1789130070745352400,20.1513525390625,9.442731857299805,0.004788403399288654,2.6144683361053467
1789130070761363500,20.167363525390623,9.442731857299805,0.019153613597154617,2.5953147411346436
1789130070777375700,20.183375732421876,9.433155059814453,0.028730420395731926,2.604891538619995
1789130070793388500,20.199388427734377,9.423578262329102,0.004788403399288654,2.63362193107605
1789130070809401600,20.215401611328126,9.433155059814453,0.009576806798577309,2.604891538619995
1789130070825417500,20.23141748046875,9.428366661071777,0.014365210197865963,2.604891538619995
1789130070841430500,20.247430419921876,9.433155059814453,0.019153613597154617,2.6192567348480225
1789130070857445000,20.263445068359374,9.423578262329102,0.004788403399288654,2.6240451335906982
1789130070873450200,20.2794501953125,9.423578262329102,0.004788403399288654,2.609679937362671
1789130070889455000,20.295455078125,9.44752025604248,0.009576806798577309,2.6240451335906982
1789130070905462500,20.311462646484376,9.442731857299805,0,2.6240451335906982
1789130070921470000,20.327469970703124,9.442731857299805,-0.004788403399288654,2.6240451335906982
1789130070937486000,20.343486083984374,9.433155059814453,-0.004788403399288654,2.63362193107605
1789130070953504300,20.359504150390624,9.466673851013184,-0.004788403399288654,2.63362193107605
1789130070969518600,20.3755185546875,9.457097053527832,-0.004788403399288654,2.6144683361053467
1789130070985525200,20.391525146484376,9.481039047241211,-0.004788403399288654,2.6144683361053467
1789130071001534500,20.407534423828125,9.433155059814453,0.004788403399288654,2.6001031398773193
1789130071017546000,20.4235458984375,9.452308654785156,0.004788403399288654,2.5905263423919678
1789130071033549000,20.439549072265624,9.452308654785156,0,2.5905263423919678
1789130071049552000,20.4555517578125,9.433155059814453,0.014365210197865963,2.585737943649292
1789130071065556000,20.471555908203126,9.418789863586426,0.009576806798577309,2.5713725090026855
1789130071081564400,20.487564453125,9.428366661071777,0.023942016065120697,2.5953147411346436
1789130071097572900,20.50357275390625,9.399636268615723,0.028730420395731926,2.5905263423919678
1789130071113581000,20.5195810546875,9.404424667358398,0.019153613597154617,2.585737943649292
1789130071129591000,20.535591064453126,9.399636268615723,0.019153613597154617,2.6192567348480225
1789130071145599200,20.55159912109375,9.428366661071777,0.009576806798577309,2.604891538619995
1789130071161606000,20.56760595703125,9.433155059814453,0.014365210197865963,2.6431987285614014
1789130071177614300,20.5836142578125,9.442731857299805,0.019153613597154617,2.63362193107605
1789130071193619500,20.599619384765624,9.433155059814453,0.004788403399288654,2.6431987285614014
1789130071209629700,20.615629638671876,9.466673851013184,0.023942016065120697,2.6575639247894287
1789130071225638400,20.631638427734377,9.44752025604248,0.014365210197865963,2.652775526046753
1789130071241649200,20.647649169921873,9.466673851013184,0,2.652775526046753
1789130071257660000,20.663659912109374,9.428366661071777,0.014365210197865963,2.6575639247894287
1789130071273667600,20.67966748046875,9.461885452270508,-0.004788403399288654,2.63362193107605
1789130071289678000,20.695677978515626,9.461885452270508,0,2.6384103298187256
1789130071305687800,20.711687744140626,9.47146224975586,0.014365210197865963,2.652775526046753
1789130071321698800,20.72769873046875,9.433155059814453,0.004788403399288654,2.6144683361053467
1789130071337712000,20.743712158203124,9.437943458557129,0,2.6192567348480225
1789130071353726000,20.759725830078125,9.404424667358398,0.033518824726343155,2.5953147411346436
1789130071369738800,20.77573876953125,9.404424667358398,0.009576806798577309,2.5761611461639404
1789130071385748000,20.791748046875,9.41400146484375,-0.023942016065120697,2.609679937362671
