time,seconds_elapsed,z,y,x
1789130050696236000,0.102236083984375,0.040071964263916016,-0.7398195266723633,0.20039653778076172
1789130050712242200,0.1182421875,0.047478675842285156,0.08072900772094727,0.007758378982543945
1789130050728248600,0.13424853515625,0.14366483688354492,-0.05651998519897461,0.1335313320159912
1789130050744256000,0.150256103515625,0.08705759048461914,0.01313638687133789,0.034688711166381836
1789130050760262400,0.166262451171875,-0.12248706817626953,0.0719156265258789,0.10549664497375488
1789130050776271400,0.182271240234375,-0.08207035064697266,0.04391050338745117,0.010968923568725586
1789130050792281900,0.19828173828125,-0.00935506820678711,-0.07684135437011719,-0.05020904541015625
1789130050808289500,0.21428955078125,-0.04990577697753906,-0.24069929122924805,0.06267070770263672
1789130050824301300,0.23030126953125,0.14961671829223633,-0.09333038330078125,-0.13673043251037598
1789130050840311600,0.2463115234375,0.02067279815673828,0.05680418014526367,0.02106308937072754
1789130050856329500,0.26232958984375,0.15915346145629883,-0.03862905502319336,0.13189387321472168
1789130050872344600,0.278344482421875,0.2348484992980957,0.041357994079589844,0.017319917678833008
1789130050888356000,0.294356201171875,-0.07351160049438477,0.09514808654785156,0.07102632522583008
1789130050904367900,0.310367919921875,-0.13575029373168945,-0.010002613067626953,0.21944236755371094
1789130050920378400,0.32637841796875,0.05927324295043945,0.2676544189453125,-0.10287213325500488
1789130050936388900,0.342388916015625,0.27907896041870117,0.24496841430664062,0.07995891571044922
1789130050952397600,0.3583974609375,0.4210214614868164,0.18915653228759766,-0.04268002510070801
1789130050968406300,0.37440625,0.03355979919433594,0.10045480728149414,0.03446221351623535
1789130050984413400,0.390413330078125,-0.017854690551757812,0.16365909576416016,0.035547494888305664
1789130051000428000,0.406427978515625,0.29022884368896484,0.1935100555419922,-0.0068416595458984375
1789130051016440800,0.42244091796875,0.30141115188598633,0.1422867774963379,0.062236785888671875
1789130051032454700,0.43845458984375,-0.0490875244140625,0.07119369506835938,0.0889657735824585
1789130051048465400,0.45446533203125,-0.2573847770690918,0.010988235473632812,0.07682311534881592
1789130051064472600,0.47047265625,-0.2560720443725586,-0.03535890579223633,-0.04813504219055176
1789130051080480000,0.48647998046875,-0.3309030532836914,-0.07304191589355469,-0.178466796875
1789130051096485600,0.502485595703125,-0.19143390655517578,-0.07888269424438477,-0.1615595817565918
1789130051112489200,0.5184892578125,-0.19838762283325195,-0.04659557342529297,-0.460313081741333
1789130051128491000,0.534490966796875,-0.44951295852661133,-0.07033920288085938,-0.10182905197143555
1789130051144492300,0.5504921875,-0.45200300216674805,-0.05956411361694336,-0.4057619571685791
1789130051160498000,0.566497802734375,-1.0883846282958984,-0.014827251434326172,-0.16298818588256836
1789130051176508200,0.582508056640625,-1.290027141571045,0.2938680648803711,0.05083656311035156
1789130051192509700,0.598509765625,-0.6292591094970703,0.4741067886352539,0.5143108367919922
1789130051208517000,0.61451708984375,0.35138940811157227,0.4394364356994629,0.5698299407958984
1789130051224521000,0.63052099609375,0.8892502784729004,0.19858551025390625,0.2862509489059448
1789130051240524500,0.646524658203125,1.0177440643310547,-0.04997587203979492,-0.011835098266601562
1789130051256529700,0.66252978515625,0.8496737480163574,-0.24644136428833008,-0.02443385124206543
1789130051272536300,0.678536376953125,0.49553775787353516,-0.15717506408691406,-0.18482863903045654
1789130051288539000,0.694538818359375,0.02053689956665039,0.12896442413330078,0.07026481628417969
1789130051304546000,0.710546142578125,0.08343839645385742,0.3379793167114258,-0.02577793598175049
1789130051320556000,0.72655615234375,0.12594032287597656,0.15001201629638672,0.34603261947631836
1789130051336564200,0.742564208984375,0.32011842727661133,0.08930253982543945,-0.1755824089050293
1789130051352568000,0.758568115234375,-0.20659303665161133,0.0767374038696289,-0.043512940406799316
1789130051368572700,0.77457275390625,-0.39181089401245117,-0.06939077377319336,0.047077059745788574
1789130051384576800,0.79057666015625,-0.2909278869628906,0.20866155624389648,0.14030718803405762
1789130051400584200,0.806584228515625,0.03596067428588867,0.22559165954589844,0.09677934646606445
1789130051416593400,0.822593505859375,0.576667308807373,0.1330409049987793,-0.0595475435256958
1789130051432601900,0.838601806640625,0.8539729118347168,-0.04465007781982422,0.15663433074951172
1789130051448613600,0.854613525390625,1.070479393005371,-0.09792232513427734,0.02739131450653076
1789130051472633900,0.8786337890625,0.9838032722473145,-0.13447046279907227,0.008951663970947266
1789130051488646100,0.894646240234375,0.9225282669067383,-0.021112918853759766,-0.12337446212768555
1789130051504657200,0.9106572265625,0.7379775047302246,-0.037467002868652344,0.10461747646331787
1789130051520661800,0.926661865234375,0.4853067398071289,-0.028364181518554688,-0.06130814552307129
1789130051536666400,0.942666259765625,-0.06072187423706055,0.08802986145019531,-0.11696875095367432
1789130051552669400,0.95866943359375,-0.5091142654418945,0.010626792907714844,-0.1046144962310791
1789130051568680400,0.974680419921875,-0.7397184371948242,0.08658218383789062,0.010387539863586426
1789130051584683500,0.99068359375,-0.8005385398864746,0.22340106964111328,0.3891535997390747
1789130051600684500,1.0066845703125,-0.3630232810974121,0.39641427993774414,0.5638593435287476
1789130051616690400,1.0226904296875,-0.09110260009765625,0.33032894134521484,0.11421144008636475
1789130051632694000,1.038694091796875,-0.28294801712036133,0.03167247772216797,0.043965697288513184
1789130051648693500,1.054693603515625,-0.4400453567504883,0.004236698150634766,-0.015375018119812012
1789130051664690400,1.0706904296875,-0.35115718841552734,-0.13586091995239258,0.030052661895751953
1789130051680692500,1.0866923828125,-0.07924890518188477,-0.1728954315185547,-0.05024111270904541
1789130051696694000,1.102694091796875,-0.011898517608642578,-0.2169513702392578,-0.2545682191848755
1789130051712696300,1.1186962890625,0.0840139389038086,-0.15346622467041016,-0.359289288520813
1789130051728700400,1.134700439453125,0.3425302505493164,0.0858006477355957,-0.16867399215698242
1789130051744709000,1.150709228515625,0.553776741027832,0.23305034637451172,0.12941491603851318
1789130051760710400,1.16671044921875,0.5994992256164551,0.44287729263305664,0.3775991201400757
1789130051776710400,1.18271044921875,0.4573831558227539,0.37432861328125,0.22281944751739502
1789130051792714200,1.19871435546875,0.04338836669921875,0.274777889251709,0.15328967571258545
1789130051808714800,1.21471484375,-0.3222341537475586,-0.06978940963745117,0.167893648147583
1789130051824715800,1.2307158203125,-0.1678023338317871,-0.2482309341430664,0.11771690845489502
1789130051840721000,1.246720947265625,-0.003784656524658203,-0.26517677307128906,-0.07642769813537598
1789130051856726000,1.26272607421875,-0.3262052536010742,-0.1258101463317871,0.11686086654663086
1789130051872727800,1.278727783203125,-0.16611766815185547,0.09299850463867188,-0.0887988805770874
1789130051888735700,1.29473583984375,0.05360984802246094,0.1269230842590332,0.10244214534759521
1789130051904741400,1.310741455078125,0.34897661209106445,0.02902078628540039,0.10819971561431885
1789130051920744200,1.326744140625,0.2987179756164551,0.0549321174621582,-0.15911471843719482
1789130051936749300,1.342749267578125,0.011912822723388672,-0.08431339263916016,0.20954906940460205
1789130051952760600,1.358760498046875,0.16455650329589844,0.08315515518188477,0.03041207790374756
1789130051968765000,1.374764892578125,-0.027604103088378906,0.26642417907714844,0.14953148365020752
1789130051984773000,1.390773193359375,0.1246795654296875,0.3050408363342285,-0.04334557056427002
1789130052008780500,1.414780517578125,0.5469341278076172,-0.09075784683227539,0.20944130420684814
1789130052024790000,1.4307900390625,0.6339554786682129,-0.2735600471496582,-0.11712467670440674
1789130052040796400,1.44679638671875,0.16842222213745117,-0.213958740234375,-0.28836238384246826
1789130052056803600,1.462803466796875,-0.07825279235839844,-0.33747386932373047,-0.08595776557922363
1789130052072806700,1.478806640625,0.05257415771484375,-0.23232078552246094,-0.3074096441268921
1789130052088809700,1.494809814453125,-0.006600856781005859,-0.03705167770385742,-0.10640311241149902
1789130052104813800,1.510813720703125,0.11784696578979492,0.08919525146484375,0.1006917953491211
1789130052120816400,1.52681640625,0.0984029769897461,0.5390715599060059,-0.05455052852630615
1789130052136820700,1.54282080078125,-0.32677173614501953,0.6926670074462891,0.2998164892196655
1789130052152828000,1.558827880859375,0.1305079460144043,0.5208659172058105,0.279729962348938
1789130052176827600,1.58282763671875,0.11720609664916992,0.06240415573120117,0.2882370948791504
1789130052192829000,1.598828857421875,-0.21978473663330078,-0.10085201263427734,0.3007657527923584
1789130052208831200,1.614831298828125,-0.11792373657226562,-0.5156736373901367,0.6030416488647461
1789130052224832500,1.63083251953125,0.07762670516967773,-0.7222108840942383,0.20973610877990723
1789130052240835000,1.6468349609375,-0.24547052383422852,-0.20302343368530273,-0.9366422891616821
1789130052256837000,1.662837158203125,-0.9911012649536133,0.19276714324951172,-0.6843246221542358
1789130052272833800,1.678833740234375,-0.5652704238891602,0.1258544921875,-0.01181340217590332
1789130052288829700,1.69482958984375,-0.027045726776123047,0.2630581855773926,0.07962977886199951
1789130052304832300,1.710832275390625,-0.3538198471069336,0.12204217910766602,0.47156822681427
1789130052320839200,1.726839111328125,-0.6130242347717285,0.12258720397949219,0.4492257833480835
1789130052336852500,1.7428525390625,-0.7391738891601562,0.3716597557067871,0.23897778987884521
1789130052352863000,1.758863037109375,-1.1544160842895508,0.5587420463562012,0.36234748363494873
1789130052368864800,1.77486474609375,-1.2784185409545898,0.7342820167541504,0.2272965908050537
1789130052384864800,1.79086474609375,-1.4115819931030273,0.8148112297058105,0.4068366289138794
1789130052400870100,1.8068701171875,-1.679837703704834,0.8186545372009277,1.0229352712631226
1789130052416872000,1.822871826171875,-1.357837200164795,0.19865179061889648,1.808975100517273
1789130052432869400,1.838869384765625,-1.0250468254089355,-1.6379380226135254,0.9169602394104004
1789130052448866800,1.85486669921875,-0.26424598693847656,-0.8332729339599609,0.5152139663696289
1789130052464868000,1.8708681640625,0.759397029876709,0.9094886779785156,0.4858911633491516
1789130052480867300,1.886867431640625,1.2374563217163086,2.430619716644287,0.3323299288749695
1789130052496873000,1.902873046875,0.17692089080810547,2.376047134399414,0.4285396337509155
1789130052512881000,1.918880859375,-1.766667366027832,1.5101284980773926,0.9992793202400208
1789130052528883200,1.93488330078125,-3.150282621383667,0.8118224143981934,1.074225902557373
1789130052544883500,1.950883544921875,-4.800450325012207,0.6765842437744141,0.6507534980773926
1789130052560885200,1.96688525390625,-5.709597110748291,0.20746707916259766,0.4786953926086426
1789130052576889300,1.982889404296875,-5.299738883972168,-1.2139892578125,0.8477485179901123
1789130052592893700,1.998893798828125,0.2989988327026367,-2.1345410346984863,-0.11209052801132202
1789130052608895200,2.014895263671875,-2.423175811767578,-2.4321069717407227,0.6022165417671204
1789130052624898800,2.03089892578125,-1.7333521842956543,-2.1520514488220215,0.5640636682510376
1789130052640894700,2.046894775390625,-2.485548973083496,-1.5003480911254883,0.5901172757148743
1789130052656891100,2.06289111328125,-3.8886663913726807,-1.55186128616333,0.8242647647857666
1789130052672887300,2.07888720703125,-5.178691864013672,-1.3158268928527832,1.343406081199646
1789130052688875000,2.094875,-5.4420928955078125,-0.7982330322265625,1.6813074350357056
1789130052704871200,2.11087109375,-4.257237434387207,-0.07660531997680664,1.4913021326065063
1789130052720872200,2.1268720703125,-1.2704100608825684,1.3006563186645508,0.3535550832748413
1789130052736871700,2.14287158203125,2.083815574645996,2.135913372039795,-0.6756779551506042
1789130052752872200,2.1588720703125,3.721132278442383,0.4584946632385254,-1.6450014114379883
1789130052768875500,2.17487548828125,3.7439537048339844,-1.6281590461730957,-1.451594352722168
1789130052784880600,2.190880615234375,2.5830583572387695,-1.736257553100586,-0.405085951089859
1789130052800883700,2.2068837890625,0.6777076721191406,-0.6299190521240234,1.0957813262939453
1789130052816886300,2.22288623046875,-1.05511474609375,-0.4856388568878174,1.3959386348724365
1789130052832893000,2.238892822265625,-0.1810922622680664,-1.7991313934326172,0.7529675960540771
1789130052848902400,2.25490234375,1.2293548583984375,-3.593003749847412,-0.14239251613616943
1789130052864903700,2.270903564453125,2.354670524597168,-4.994894981384277,-0.7809358835220337
1789130052880908800,2.28690869140625,4.666054725646973,-5.041224956512451,-1.1733567714691162
1789130052896918300,2.302918212890625,6.2895612716674805,-4.349845886230469,-1.0495715141296387
1789130052912920300,2.31892041015625,6.020967483520508,-3.451404333114624,-0.9151501655578613
1789130052928922400,2.33492236328125,5.1558685302734375,-1.7149838209152222,0.0498049259185791
1789130052944925200,2.35092529296875,4.43714714050293,0.48848557472229004,2.4528353214263916
1789130052960919600,2.36691943359375,6.496962547302246,2.459050178527832,4.086597442626953
1789130052976912400,2.382912353515625,6.133301734924316,2.042356014251709,3.70440936088562
1789130052992907500,2.398907470703125,4.508576393127441,-0.10884380340576172,2.8504738807678223
1789130053008901600,2.414901611328125,-0.6312971115112305,-1.0084428787231445,3.429741859436035
1789130053024902400,2.43090234375,-3.7353997230529785,-1.0354150533676147,1.7215968370437622
1789130053040903000,2.44690283203125,-4.106940746307373,0.4907710552215576,-0.09696424007415771
1789130053056900900,2.46290087890625,-1.371586799621582,1.9696924686431885,-0.7286889553070068
1789130053072902100,2.478902099609375,-0.4386119842529297,2.697592258453369,0.13454341888427734
1789130053088898000,2.49489794921875,-1.2674751281738281,2.0809948444366455,0.6932048797607422
1789130053104893200,2.51089306640625,-1.7833342552185059,1.9691977500915527,0.768629789352417
1789130053120891100,2.52689111328125,-2.344482898712158,0.8511035442352295,-0.5507817268371582
1789130053136891000,2.542890869140625,-2.7398767471313477,-0.5492665767669678,-0.7891154289245605
1789130053152883200,2.55888330078125,-0.5034265518188477,0.33730530738830566,0.4166862964630127
1789130053168879600,2.574879638671875,2.7387123107910156,1.1356792449951172,1.87559175491333
1789130053184872400,2.59087255859375,3.693753242492676,-1.090050220489502,-2.1464290618896484
1789130053200870400,2.606870361328125,0.4816265106201172,-1.1174097061157227,-0.5036931037902832
1789130053216863200,2.62286328125,3.8025102615356445,-1.3379254341125488,1.224107265472412
1789130053232857000,2.638857177734375,-6.080516338348389,-2.678882598876953,0.3186163902282715
1789130053248853200,2.654853271484375,-0.5752811431884766,-2.2693934440612793,0.1862943172454834
1789130053264845600,2.670845458984375,-1.2160344123840332,-1.6797734498977661,-0.15319442749023438
1789130053280846600,2.6868466796875,0.0970611572265625,-0.5551552772521973,0.15328025817871094
1789130053296845300,2.70284521484375,1.8437433242797852,-1.0478756427764893,-0.19475746154785156
1789130053312834600,2.71883447265625,1.510462760925293,-1.7751333713531494,-0.24392414093017578
1789130053328827100,2.7348271484375,0.6751871109008789,-1.2899365425109863,0.028942108154296875
1789130053344820500,2.750820556640625,2.6730728149414062,-2.6727712154388428,-2.0146687030792236
1789130053360815600,2.766815673828125,-8.87018871307373,-2.1109442710876465,-2.9303932189941406
1789130053376812000,2.78281201171875,-6.884346961975098,-1.9138109683990479,-2.153752326965332
1789130053392803000,2.798802978515625,-0.2647991180419922,-1.2575228214263916,-1.6833220720291138
1789130053408797400,2.81479736328125,0.9877414703369141,-0.25724756717681885,-1.2397408485412598
1789130053424792800,2.830792724609375,-1.0169944763183594,-3.4581356048583984,-3.3647513389587402
1789130053440786000,2.846785888671875,-0.3853778839111328,-5.181100845336914,-0.6257444620132446
1789130053456780500,2.862780517578125,-2.156317710876465,-5.08020544052124,2.887030601501465
1789130053472779500,2.878779541015625,-85.19636535644531,18.531538009643555,-6.206957817077637
1789130053488781600,2.894781494140625,0.875126838684082,-4.184548854827881,0.927908182144165
1789130053504784000,2.910783935546875,-5.960825443267822,-2.0513064861297607,2.551624298095703
1789130053520788200,2.926788330078125,-2.6857643127441406,0.45140981674194336,1.9487059116363525
1789130053536791300,2.942791259765625,-1.4062390327453613,1.858367919921875,0.793448805809021
1789130053552788000,2.9587880859375,-57.52670669555664,14.089929580688477,-9.92908763885498
1789130053568791600,2.97479150390625,8.889396667480469,3.555009365081787,-4.662240982055664
1789130053584796400,2.99079638671875,8.997225761413574,3.206174612045288,-2.2994308471679688
1789130053600797700,3.006797607421875,4.623461723327637,-0.6597180366516113,1.4839926958084106
1789130053616803600,3.022803466796875,0.42812061309814453,0.07572507858276367,2.0443832874298096
1789130053632815000,3.038815185546875,-1.279160976409912,-0.6622984409332275,0.9381016492843628
1789130053648822500,3.054822509765625,-2.298438549041748,-0.8134846687316895,0.9775419235229492
1789130053664836000,3.070836181640625,0.20592784881591797,-1.0803477764129639,1.279496192932129
1789130053680846600,3.0868466796875,-0.7570953369140625,-1.2958836555480957,1.7576261758804321
1789130053696852200,3.102852294921875,0.3935127258300781,-1.0266282558441162,0.05769968032836914
1789130053712856300,3.118856201171875,1.3634071350097656,-1.1300060749053955,-2.131160259246826
1789130053728856600,3.134856689453125,1.9119873046875,-0.27451419830322266,-0.7665777206420898
1789130053744863500,3.150863525390625,-0.4385490417480469,-0.5284225940704346,0.495547890663147
1789130053760869000,3.166869140625,-0.5813369750976562,-0.5582602024078369,0.2694658041000366
1789130053776883200,3.18288330078125,-1.3779587745666504,-0.49065375328063965,0.5293960571289062
1789130053792889900,3.198889892578125,-0.73907470703125,-1.0470893383026123,0.09080684185028076
1789130053808895200,3.214895263671875,-0.22385025024414062,-1.4832029342651367,0.5200743675231934
1789130053824906500,3.230906494140625,0.1320934295654297,-1.6183042526245117,0.7948198318481445
1789130053840919000,3.2469189453125,-0.11523246765136719,-1.2647347450256348,0.38615894317626953
1789130053856931000,3.26293115234375,0.2291707992553711,-0.5425052642822266,-0.3170963525772095
1789130053872951000,3.278950927734375,-0.03223228454589844,0.20333266258239746,-0.35666847229003906
1789130053888964400,3.29496435546875,-0.8584461212158203,0.09928250312805176,-0.5298522710800171
1789130053904970500,3.310970458984375,-0.42864322662353516,1.954010009765625,0.11481690406799316
1789130053920975400,3.326975341796875,1.9666404724121094,2.920077085494995,-0.20553237199783325
1789130053936987000,3.34298681640625,-0.023906707763671875,2.7622485160827637,-0.40559911727905273
1789130053952999000,3.3589990234375,-1.9641623497009277,1.5292079448699951,-0.7672982215881348
1789130053969009200,3.375009033203125,-2.5072717666625977,-0.19648456573486328,-0.8752971887588501
1789130053985015800,3.391015869140625,-1.4175186157226562,-0.1740868091583252,-0.44675153493881226
1789130054001020200,3.407020263671875,10.53817081451416,-1.036636233329773,3.0834364891052246
1789130054017022700,3.423022705078125,-2.1136765480041504,1.117424726486206,2.4098846912384033
1789130054033026300,3.4390263671875,-3.260580539703369,0.6342591047286987,-0.25432175397872925
1789130054049032700,3.45503271484375,-4.3201985359191895,-0.17952275276184082,-0.4490697383880615
1789130054065039400,3.471039306640625,-3.174376964569092,0.3043251037597656,-0.2652127742767334
1789130054081048800,3.487048828125,2.824310302734375,-0.31101101636886597,1.68612802028656
1789130054097058300,3.503058349609375,6.042261123657227,-0.9693096876144409,5.5793023109436035
1789130054113061600,3.5190615234375,-0.3439474105834961,0.9833564758300781,-0.14378702640533447
1789130054129064400,3.535064453125,-0.4903450012207031,-0.16034013032913208,-1.5284545421600342
1789130054145070000,3.551070068359375,0.12554454803466797,-0.30810391902923584,-0.910225510597229
1789130054161077000,3.567076904296875,1.0463857650756836,-0.8374755382537842,-0.9851531982421875
1789130054177084400,3.58308447265625,-0.4956846237182617,-0.6348927021026611,-1.174469232559204
1789130054193090000,3.599090087890625,-1.2768278121948242,-0.6620673537254333,-0.001887679100036621
1789130054209097500,3.615097412109375,0.5130691528320312,-1.2059550285339355,0.6618516445159912
1789130054225101600,3.6311015625,-1.0957355499267578,-0.4124297499656677,-0.1961461305618286
1789130054241106700,3.647106689453125,0.883488655090332,0.9605143070220947,-0.25261223316192627
1789130054257110300,3.6631103515625,1.9325199127197266,-0.3281358480453491,-0.9161111116409302
1789130054273120300,3.679120361328125,2.4637346267700195,-0.08842407166957855,-0.019610881805419922
1789130054289129500,3.69512939453125,1.692056655883789,-0.0643433928489685,-0.001490950584411621
1789130054305138700,3.711138671875,-0.4108133316040039,-0.694063663482666,-0.8637178540229797
1789130054321147000,3.72714697265625,1.0248432159423828,-0.4540725350379944,0.422336220741272
1789130054337157000,3.7431572265625,0.149169921875,-1.831430435180664,0.13572931289672852
1789130054353162800,3.759162841796875,2.075860023498535,1.6074366569519043,5.251545429229736
1789130054369172500,3.77517236328125,2.489501953125,1.9510061740875244,1.6068536043167114
1789130054385181400,3.791181396484375,2.9737548828125,0.6784294247627258,0.8665744066238403
1789130054401189000,3.807189208984375,-0.5699958801269531,0.596464216709137,0.746065616607666
1789130054417198600,3.823198486328125,0.22046184539794922,0.6966286897659302,2.3838627338409424
1789130054433207000,3.83920703125,0.05535125732421875,0.3420604467391968,1.2867683172225952
1789130054449217300,3.85521728515625,-0.3741302490234375,-0.4632316827774048,0.10225546360015869
1789130054465227000,3.87122705078125,0.2302255630493164,-0.7524181604385376,-0.3513554334640503
1789130054481235700,3.887235595703125,-0.14740657806396484,-0.723217248916626,-0.4385332465171814
1789130054497242400,3.903242431640625,0.6433277130126953,0.2669224143028259,0.315138578414917
1789130054513246000,3.919245849609375,-1.625260353088379,-0.12998248636722565,0.0506739616394043
1789130054529249800,3.935249755859375,0.14996337890625,0.4033510982990265,0.7705135345458984
1789130054545252600,3.951252685546875,0.39612293243408203,0.2949197292327881,1.2778172492980957
1789130054561259500,3.967259521484375,-0.07221603393554688,-0.035803429782390594,-0.08885622024536133
1789130054577261600,3.983261474609375,0.1445159912109375,-0.651528000831604,0.12643277645111084
1789130054593263600,3.999263671875,0.4169759750366211,-0.7930158376693726,-2.1359565258026123
1789130054609273900,4.01527392578125,0.1123189926147461,-2.505033254623413,-3.423015594482422
1789130054625279500,4.031279541015625,0.09332466125488281,-1.89468252658844,-2.6909377574920654
1789130054641282600,4.047282470703125,-0.19813823699951172,0.28233346343040466,1.5879096984863281
1789130054657287400,4.063287353515625,-0.6008024215698242,1.5801899433135986,4.479453086853027
1789130054673292300,4.079292236328125,2.2366952896118164,1.558563232421875,5.8706159591674805
1789130054689294000,4.095294189453125,0.1682415008544922,-0.4628086984157562,0.7751784324645996
1789130054705297200,4.111297119140625,0.19774341583251953,-0.8568774461746216,0.0698843002319336
1789130054721300000,4.127300048828125,0.10227394104003906,-0.6587957143783569,0.13439631462097168
1789130054737306600,4.143306640625,-0.1559915542602539,-0.30496519804000854,0.24685978889465332
1789130054753312000,4.15931201171875,0.021816253662109375,-0.3022288680076599,-0.08837854862213135
1789130054769320000,4.17531982421875,0.42424774169921875,-0.3049383759498596,-0.022543787956237793
1789130054785323800,4.19132373046875,0.17006301879882812,0.17096546292304993,-0.18178200721740723
1789130054801325800,4.207325927734375,-0.15575408935546875,-0.05696886032819748,0.5912415981292725
1789130054817326600,4.22332666015625,0.012334823608398438,-0.6409642696380615,0.5781617164611816
1789130054833331700,4.239331787109375,0.137359619140625,-0.38229629397392273,0.5213769674301147
1789130054849332000,4.25533203125,0.4727973937988281,-0.3783133924007416,0.09319460391998291
1789130054865337600,4.271337646484375,0.3287649154663086,-0.2953886389732361,0.23956894874572754
1789130054881344800,4.2873447265625,0.021903038024902344,-0.2066527158021927,0.7258683443069458
1789130054897353500,4.303353515625,-0.02602672576904297,-0.9553623795509338,-0.815432608127594
1789130054913357600,4.319357666015625,-0.4181547164916992,-0.19950354099273682,0.3731040954589844
1789130054929357800,4.33535791015625,-0.1161346435546875,-0.1770186424255371,0.054586172103881836
1789130054945357300,4.351357421875,0.6360683441162109,-0.05428348481655121,0.11416041851043701
1789130054961364700,4.36736474609375,0.32021522521972656,0.03135374188423157,-0.18377339839935303
1789130054977368600,4.38336865234375,-0.24007415771484375,0.3488942086696625,0.1710646152496338
1789130054993372000,4.399371826171875,0.6982975006103516,-0.19835367798805237,-0.3349993824958801
1789130055009375200,4.415375244140625,-0.03461265563964844,-0.051089413464069366,-0.16964387893676758
1789130055025381600,4.431381591796875,-0.09761714935302734,-0.06905439496040344,-0.1722548007965088
1789130055041390600,4.447390625,0.4234018325805664,-0.2146923542022705,-0.23553431034088135
1789130055057398000,4.46339794921875,-0.02760791778564453,-0.24874427914619446,-0.12199211120605469
1789130055073399800,4.47939990234375,0.2970895767211914,-0.27734798192977905,-0.18945717811584473
1789130055089405400,4.495405517578125,-0.07783126831054688,-0.5560779571533203,-0.05637967586517334
1789130055105407700,4.51140771484375,-0.2849464416503906,-0.23432557284832,-0.30346763134002686
1789130055121411300,4.527411376953125,0.34600257873535156,-0.5025472640991211,-0.3070904016494751
1789130055137417500,4.54341748046875,0.05628490447998047,-0.439842164516449,-0.2700033187866211
1789130055153421000,4.559421142578125,-0.36716747283935547,0.20589235424995422,-0.11756277084350586
1789130055169427000,4.575427001953125,-0.10613536834716797,0.1303049623966217,-0.6373844146728516
1789130055185425000,4.5914248046875,0.3604459762573242,0.09627506136894226,-0.10326707363128662
1789130055201429800,4.6074296875,0.22898578643798828,0.23290212452411652,-0.40762490034103394
1789130055217435000,4.623434814453125,-0.06409168243408203,0.258003830909729,0.1283867359161377
1789130055233443300,4.639443359375,0.715855598449707,0.05344283580780029,-0.10440510511398315
1789130055249457200,4.65545703125,0.23674774169921875,0.2904944121837616,-0.4078103303909302
1789130055265469400,4.671469482421875,0.41748809814453125,0.12787115573883057,-0.2575231194496155
1789130055281477600,4.6874775390625,0.3445405960083008,-0.16859766840934753,0.0787816047668457
1789130055297489000,4.703489013671875,0.36313915252685547,-0.44056054949760437,-0.3131290674209595
1789130055313499400,4.71949951171875,-0.08267021179199219,-0.020606666803359985,0.1796020269393921
1789130055329505800,4.735505859375,0.4151268005371094,-0.133991539478302,0.28242361545562744
1789130055345512700,4.7515126953125,0.8123559951782227,-0.5873119235038757,-0.10781627893447876
1789130055361521700,4.767521728515625,-0.0260009765625,-0.1847008764743805,0.08754134178161621
1789130055377533700,4.78353369140625,0.1078023910522461,0.13725095987319946,-0.1250154972076416
1789130055393543400,4.79954345703125,-0.3908958435058594,-0.2979983687400818,-0.6686969995498657
1789130055409552000,4.8155517578125,-0.32442569732666016,0.202755868434906,0.1611713171005249
1789130055425568000,4.831568115234375,0.4412851333618164,-0.1720680296421051,-0.06349611282348633
1789130055441580500,4.84758056640625,0.2249431610107422,-0.29193127155303955,-0.5995340943336487
1789130055457589200,4.86358935546875,-0.2354259490966797,0.014057368040084839,0.34702908992767334
1789130055473602300,4.879602294921875,0.5106639862060547,0.3023796081542969,-0.1381435990333557
1789130055489613800,4.89561376953125,-0.02601909637451172,-0.3009472191333771,-0.052845895290374756
1789130055505626400,4.91162646484375,-0.4289436340332031,0.08088162541389465,-0.05562382936477661
1789130055521635300,4.92763525390625,0.18816471099853516,-0.13316917419433594,0.21905624866485596
1789130055537651500,4.9436513671875,0.5035953521728516,-0.5169894695281982,-0.34334665536880493
1789130055553666000,4.959666015625,0.08654594421386719,-0.256063312292099,-0.0601351261138916
1789130055569684700,4.975684814453125,-0.05773353576660156,-0.12822341918945312,-0.06211644411087036
1789130055585695700,4.99169580078125,-0.034232139587402344,-0.0688457190990448,0.08678364753723145
1789130055601706200,5.007706298828125,0.5685701370239258,-0.08672234416007996,0.11684727668762207
1789130055617712000,5.023712158203125,0.1273975372314453,-0.10471364855766296,-0.08662420511245728
1789130055633719300,5.03971923828125,0.15556716918945312,0.019887655973434448,0.3695928454399109
1789130055649727000,5.05572705078125,0.4185953140258789,0.20374485850334167,-0.13374543190002441
1789130055665737200,5.0717373046875,0.06853771209716797,-0.13909092545509338,-0.15788418054580688
1789130055681745700,5.08774560546875,-0.03278541564941406,0.054921895265579224,-0.18997591733932495
1789130055697756200,5.103756103515625,0.5456695556640625,0.5274916887283325,0.038802266120910645
1789130055713768200,5.119768310546875,0.6935348510742188,-0.0017825067043304443,-0.3529829978942871
1789130055729779500,5.135779541015625,-0.14941692352294922,-0.386577844619751,-0.030522406101226807
1789130055745793000,5.15179296875,-0.585484504699707,-0.587544858455658,-0.04121410846710205
1789130055761803300,5.16780322265625,0.24728679656982422,-0.1436540186405182,0.1880582571029663
1789130055777812200,5.183812255859375,0.5917863845825195,0.11226961016654968,-0.24400097131729126
1789130055793819400,5.1998193359375,-0.07906913757324219,-0.29499390721321106,-0.32479381561279297
1789130055809827800,5.215827880859375,-0.3762474060058594,-0.36170974373817444,0.2054382562637329
1789130055825834800,5.231834716796875,-0.4050331115722656,-0.26233139634132385,-0.06739318370819092
1789130055841842200,5.24784228515625,0.3276538848876953,0.2756537199020386,-0.4265564978122711
1789130055857853700,5.263853759765625,0.35649585723876953,0.21769022941589355,-0.11336421966552734
1789130055873865000,5.279864990234375,0.10274982452392578,0.09899258613586426,0.1133577823638916
1789130055889875500,5.29587548828125,0.46648693084716797,0.6002000570297241,0.523687481880188
1789130055905881900,5.3118818359375,0.11249256134033203,0.32117772102355957,-0.29308366775512695
1789130055921891800,5.327891845703125,0.217987060546875,0.10257723927497864,0.01224827766418457
1789130055937902800,5.34390283203125,0.16054630279541016,-0.07275480031967163,0.3287544250488281
1789130055953908500,5.359908447265625,0.28496456146240234,0.1428077518939972,0.06158328056335449
1789130055969910300,5.37591015625,0.5576982498168945,0.46191900968551636,0.04897254705429077
1789130055985911800,5.391911865234375,-0.14630603790283203,0.4078442454338074,-0.3591133654117584
1789130056001923600,5.407923583984375,-0.09848976135253906,-0.04579204320907593,-0.06275081634521484
1789130056025943000,5.431943115234375,-0.0033426284790039062,0.12519216537475586,-0.019429802894592285
1789130056041954000,5.4479541015625,0.2837791442871094,-0.18700963258743286,-0.1852063536643982
1789130056057969200,5.46396923828125,0.566004753112793,-0.13419502973556519,-0.2296079397201538
1789130056073983000,5.47998291015625,0.12993526458740234,0.279183954000473,0.017274558544158936
1789130056089997300,5.495997314453125,0.3304910659790039,-0.02411988377571106,-0.3166404962539673
1789130056106019000,5.51201904296875,-0.07731914520263672,-0.4666822850704193,0.17283964157104492
1789130056122037800,5.528037841796875,0.5825538635253906,-0.05558684468269348,-0.06508564949035645
1789130056138051000,5.544051025390625,-0.14098834991455078,-0.40589046478271484,-0.5745899677276611
1789130056154068200,5.560068115234375,-0.20884990692138672,-0.2692394256591797,0.04870927333831787
1789130056170080500,5.57608056640625,0.8578910827636719,-0.027617305517196655,-0.03098130226135254
1789130056186096000,5.59209619140625,0.06749534606933594,-0.16140055656433105,-0.43168359994888306
1789130056210118000,5.616117919921875,-0.23097515106201172,0.0399642288684845,-0.8294664025306702
1789130056226130400,5.63213037109375,-0.24277687072753906,0.1638146936893463,0.3215875029563904
1789130056242140700,5.648140625,-0.16857433319091797,0.17452451586723328,0.1416947841644287
1789130056258157600,5.664157470703125,0.21397972106933594,-0.08179950714111328,-0.08647817373275757
1789130056274169900,5.680169921875,0.43878936767578125,-0.07694900035858154,0.060890376567840576
1789130056290187500,5.6961875,-0.05482006072998047,0.1208527535200119,-0.011267781257629395
1789130056306203100,5.712203125,-0.4476499557495117,0.3732374906539917,0.12006145715713501
1789130056322217700,5.7282177734375,0.26564884185791016,0.6419366598129272,-0.10687249898910522
1789130056338229500,5.7442294921875,0.7395505905151367,0.8485739231109619,0.11130326986312866
1789130056354239700,5.76023974609375,0.10255050659179688,-0.005019843578338623,-0.002090632915496826
1789130056370253300,5.77625341796875,0.2653923034667969,0.010637938976287842,0.10815286636352539
1789130056386271000,5.79227099609375,0.08350563049316406,-0.3476150929927826,-0.7065407633781433
1789130056402289700,5.80828955078125,-0.2419605255126953,-0.1610996127128601,0.15302586555480957
1789130056418302700,5.824302734375,0.5865192413330078,-0.4911155700683594,-0.00611191987991333
1789130056442325000,5.848324951171875,0.1269092559814453,-0.7712001800537109,-0.24312159419059753
1789130056458337500,5.864337646484375,0.007197380065917969,-0.3030986189842224,0.37880605459213257
1789130056474352400,5.880352294921875,0.39993953704833984,-0.08021801710128784,-0.018729567527770996
1789130056490369300,5.896369384765625,0.6011562347412109,-0.3503037095069885,-0.5982337594032288
1789130056506388500,5.912388427734375,0.0453948974609375,0.25438952445983887,-0.10443556308746338
1789130056522403600,5.928403564453125,-0.30909252166748047,0.11326256394386292,1.1728531122207642
1789130056538422300,5.94442236328125,0.21300029754638672,-0.2320537269115448,-0.5272215008735657
1789130056554447400,5.960447265625,0.15075111389160156,0.04701027274131775,-0.51692134141922
1789130056570469400,5.976469482421875,-0.2181720733642578,0.4574621021747589,0.022008657455444336
1789130056586485200,5.9924853515625,0.25569915771484375,0.15876570343971252,0.5218427777290344
1789130056602498800,6.008498779296875,0.3801250457763672,-0.018874019384384155,0.31681644916534424
1789130056618513700,6.024513671875,-0.3429136276245117,-0.2646043598651886,-0.19170820713043213
1789130056634522600,6.040522705078125,0.5044832229614258,-0.7842540740966797,-0.38925671577453613
1789130056650536700,6.05653662109375,0.5616846084594727,-0.60466468334198,-0.19230127334594727
1789130056666547200,6.072547119140625,-0.5491123199462891,-0.8983927965164185,-0.005621194839477539
1789130056682559000,6.08855908203125,0.23612213134765625,0.07042619585990906,-0.01331484317779541
1789130056698571300,6.1045712890625,0.5472402572631836,0.3227650821208954,0.26832133531570435
1789130056714586600,6.120586669921875,0.4037456512451172,-0.038700252771377563,0.4040301442146301
1789130056730602800,6.136602783203125,0.23635005950927734,-0.8457045555114746,-0.17444062232971191
1789130056746625000,6.152625,-0.18950748443603516,-0.5349438190460205,-0.3032459020614624
1789130056762639000,6.16863916015625,-0.1942758560180664,0.4008171856403351,-0.35685330629348755
1789130056778656500,6.184656494140625,0.4667167663574219,0.14537079632282257,0.365034282207489
1789130056794674200,6.200674072265625,0.7110738754272461,0.22725722193717957,0.1953568458557129
1789130056810691600,6.216691650390625,0.3137845993041992,-0.024597227573394775,0.0074312686920166016
1789130056826713600,6.232713623046875,0.1558675765991211,-0.1727829873561859,0.4082198143005371
1789130056842733600,6.248733642578125,0.7208995819091797,-0.1872900426387787,-0.3340766727924347
1789130056858753800,6.26475390625,-0.4188251495361328,-0.7028473019599915,-0.013892114162445068
1789130056874777000,6.280777099609375,-0.25136756896972656,0.02490803599357605,-0.029068291187286377
1789130056890794800,6.296794677734375,0.1699695587158203,0.7503684759140015,0.19042277336120605
1789130056906809900,6.312809814453125,-0.011951446533203125,0.16013020277023315,0.23694419860839844
1789130056922824400,6.328824462890625,0.3089027404785156,-0.2754053771495819,0.3131840229034424
1789130056938843400,6.344843505859375,0.011898994445800781,0.3216317296028137,0.14183640480041504
1789130056954864600,6.36086474609375,0.1460399627685547,-0.1694256067276001,-0.05902969837188721
1789130056970892500,6.376892578125,0.05980205535888672,-0.6640147566795349,-0.2267114222049713
1789130056986915600,6.39291552734375,-0.0790863037109375,0.275339812040329,-0.2737010419368744
1789130057002940400,6.4089404296875,-0.0552978515625,-0.021391242742538452,0.16937768459320068
1789130057018963500,6.42496337890625,0.4709634780883789,-0.07787135243415833,-0.31680572032928467
1789130057034986500,6.440986572265625,-0.051242828369140625,0.4042440950870514,0.04497498273849487
1789130057051007000,6.457007080078125,-0.6165475845336914,0.20116128027439117,-0.07901251316070557
1789130057067026400,6.4730263671875,-0.22406005859375,-0.11167648434638977,-0.058161139488220215
1789130057083044600,6.489044677734375,0.25905704498291016,0.5165894031524658,-0.32977429032325745
1789130057099060500,6.505060546875,-0.20589160919189453,0.29160892963409424,0.23554110527038574
1789130057115079400,6.521079345703125,0.8811130523681641,0.24850240349769592,0.4552041292190552
1789130057131096000,6.537095947265625,1.3934907913208008,0.15524253249168396,-0.07788723707199097
1789130057147112700,6.55311279296875,-0.3350553512573242,-0.42923736572265625,0.39228832721710205
1789130057163127800,6.5691279296875,-0.11951351165771484,0.11848150193691254,0.20291966199874878
1789130057179148800,6.585148681640625,0.5556735992431641,0.02882322669029236,0.24861353635787964
1789130057195169500,6.60116943359375,0.39273548126220703,-0.30503156781196594,-0.3017551302909851
1789130057211193300,6.617193359375,-0.13862991333007812,-0.1404721736907959,0.13484936952590942
1789130057227213800,6.6332138671875,0.25402259826660156,-0.3329589068889618,0.8334017992019653
1789130057243234800,6.64923486328125,0.2732381820678711,0.26122283935546875,-0.13940462470054626
1789130057259252000,6.665251953125,-0.1050252914428711,-0.12968716025352478,-0.38304823637008667
1789130057275270400,6.6812705078125,-0.6409902572631836,-0.7276309728622437,0.16026538610458374
1789130057291291100,6.697291015625,-0.36299896240234375,0.12964622676372528,0.09164482355117798
1789130057307317000,6.71331689453125,0.45603370666503906,0.47535085678100586,-0.018865585327148438
1789130057323337200,6.729337158203125,-0.32407474517822266,-0.5224002599716187,0.22803324460983276
1789130057339354000,6.74535400390625,-0.38053131103515625,-0.15369144082069397,-0.08346641063690186
1789130057355375400,6.761375244140625,-0.17867755889892578,-0.20942720770835876,-0.2819361984729767
1789130057371395600,6.7773955078125,-0.6514968872070312,-0.38321879506111145,0.35915279388427734
1789130057387413500,6.79341357421875,0.8018341064453125,-0.12906759977340698,-0.06784892082214355
1789130057403433000,6.809432861328125,0.23500442504882812,-0.7428343892097473,-0.017866313457489014
1789130057419447800,6.82544775390625,-0.14424800872802734,-0.7841368913650513,0.24090898036956787
1789130057435466800,6.841466796875,0.17055988311767578,-0.2886183261871338,0.1749659776687622
1789130057451487200,6.8574873046875,0.23016834259033203,-0.04380255937576294,0.2809827923774719
1789130057467503400,6.87350341796875,0.041217803955078125,-0.31291884183883667,0.3085227608680725
1789130057483516400,6.889516357421875,-0.17601490020751953,-0.78276526927948,-0.012930333614349365
1789130057499533000,6.905532958984375,-0.4361095428466797,-0.5344671010971069,0.3203011751174927
1789130057515553300,6.92155322265625,0.4380207061767578,-0.19989997148513794,0.22284162044525146
1789130057531573200,6.9375732421875,-0.4725637435913086,-0.5803535580635071,0.7298508882522583
1789130057547594800,6.9535947265625,-0.1323871612548828,-0.5912982821464539,0.32721972465515137
1789130057563623200,6.969623046875,0.08423042297363281,-0.265799343585968,0.6349963545799255
1789130057579647200,6.985647216796875,-0.2928009033203125,-0.5897372961044312,0.8014262914657593
1789130057595674600,7.001674560546875,-0.22914409637451172,-0.29931771755218506,1.0792686939239502
1789130057611699200,7.01769921875,-0.034790992736816406,-0.7106741070747375,0.6244300007820129
1789130057627718000,7.0337177734375,-0.39130592346191406,-0.5459468364715576,1.1068750619888306
1789130057643738600,7.049738525390625,0.109344482421875,-0.10479462146759033,1.0177174806594849
1789130057659759900,7.065759765625,0.06577301025390625,-0.11101877689361572,0.784220814704895
1789130057675784400,7.081784423828125,-0.24990463256835938,-0.3466390371322632,1.0075210332870483
1789130057691810300,7.097810302734375,0.06590747833251953,-0.20962131023406982,0.7787103652954102
1789130057707832600,7.11383251953125,0.008167266845703125,-0.28834688663482666,0.7547751665115356
1789130057723855400,7.12985546875,-0.21584320068359375,-0.3365441560745239,0.6063899993896484
1789130057739876600,7.145876708984375,0.3698463439941406,-0.6953821182250977,1.1050955057144165
1789130057755899000,7.16189892578125,-0.023912429809570312,-0.26116061210632324,1.1406428813934326
1789130057771919400,7.17791943359375,0.25144290924072266,0.4105594754219055,0.8196196556091309
1789130057787941000,7.193941162109375,0.12835979461669922,-0.2506225109100342,0.5794429779052734
1789130057803965000,7.20996484375,-0.10599327087402344,-0.039975881576538086,0.8351534605026245
1789130057819983600,7.225983642578125,-0.052967071533203125,0.4163094758987427,0.8018046617507935
1789130057836003000,7.242003173828125,-0.2014179229736328,-0.1972966194152832,0.6629482507705688
1789130057852015600,7.258015625,0.26891136169433594,0.2570149898529053,0.45177173614501953
1789130057868028700,7.274028564453125,0.59149169921875,0.31926578283309937,0.581841230392456
1789130057884047600,7.290047607421875,0.14441776275634766,0.1864922046661377,0.2398695945739746
1789130057900070400,7.3060703125,0.2746095657348633,0.36362510919570923,0.5713562965393066
1789130057916094000,7.322093994140625,0.2666177749633789,0.8252977728843689,0.4781496524810791
1789130057932123400,7.338123291015625,0.6063852310180664,0.4901100695133209,0.2760918140411377
1789130057948145000,7.354144775390625,0.5984344482421875,0.048688411712646484,0.2913801670074463
1789130057964160800,7.370160888671875,0.3055400848388672,-0.15444260835647583,0.2568087577819824
1789130057980171500,7.386171630859375,-0.12236690521240234,0.44247788190841675,0.4407644271850586
1789130057996188200,7.402188232421875,-0.02260303497314453,0.414955735206604,0.07460165023803711
1789130058012206600,7.41820654296875,0.35605716705322266,0.2459295392036438,-0.18941783905029297
1789130058028220700,7.434220703125,0.05870532989501953,0.4327998161315918,0.1241765022277832
1789130058044233500,7.4502333984375,0.2548236846923828,-0.06718283891677856,0.15728497505187988
1789130058060248800,7.466248779296875,-0.037917137145996094,0.2684849202632904,-0.11837434768676758
1789130058076259800,7.482259765625,-0.29609107971191406,0.42027121782302856,0.014637470245361328
1789130058092274000,7.49827392578125,-0.2626771926879883,0.750883162021637,0.06239175796508789
1789130058108283400,7.514283447265625,0.49942493438720703,0.6696586608886719,-0.42476439476013184
1789130058124299300,7.53029931640625,-0.25130271911621094,0.33429864048957825,-0.026639461517333984
1789130058140318700,7.546318603515625,-0.6247348785400391,0.03678314387798309,0.20810580253601074
1789130058156337700,7.562337646484375,-0.4378080368041992,0.8070539236068726,-0.22341585159301758
1789130058172353000,7.57835302734375,-0.1979808807373047,0.8980082273483276,-0.17050385475158691
1789130058188374300,7.594374267578125,0.05055427551269531,0.8724411725997925,-0.4344470500946045
1789130058204396300,7.610396240234375,0.23560333251953125,1.1070129871368408,0.2778005599975586
1789130058220414500,7.62641455078125,0.2252950668334961,0.8766162991523743,-0.20129656791687012
1789130058236435500,7.642435546875,-0.14690399169921875,0.6448755860328674,-0.22658300399780273
1789130058252451800,7.658451904296875,0.3174905776977539,0.4215030074119568,-0.5143334865570068
1789130058268473600,7.6744736328125,0.3979053497314453,0.44400912523269653,-0.34815406799316406
1789130058284494600,7.69049462890625,-0.3336362838745117,-0.33493712544441223,0.06881237030029297
1789130058300518400,7.706518310546875,0.7342033386230469,-0.05393724516034126,-0.3333737850189209
1789130058316538400,7.722538330078125,0.24885272979736328,0.2718345820903778,-0.7428529262542725
1789130058332555300,7.73855517578125,-0.3181314468383789,0.02082878351211548,-0.41341471672058105
1789130058348574700,7.75457470703125,-0.048483848571777344,0.5321804285049438,-0.2895066738128662
1789130058364593400,7.770593505859375,0.2740926742553711,0.6688409447669983,-0.74610435962677
1789130058380609300,7.786609375,-0.06762027740478516,0.30307620763778687,-0.45939719676971436
1789130058396620500,7.80262060546875,0.19764232635498047,-0.23611584305763245,-0.314597487449646
1789130058412639200,7.81863916015625,0.35769081115722656,0.1222430169582367,-0.608036994934082
1789130058428661800,7.834661865234375,0.0931396484375,-0.35961273312568665,-0.6232073307037354
1789130058444684800,7.850684814453125,-0.3573284149169922,-0.9651858806610107,-0.4713153839111328
1789130058460704800,7.866704833984375,0.24811172485351562,-0.22720910608768463,-0.4505727291107178
1789130058476728600,7.882728515625,0.6066751480102539,0.08013331145048141,-0.63446044921875
1789130058492744200,7.898744140625,0.21591567993164062,-0.5209354162216187,-0.4741814136505127
1789130058508761000,7.914760986328125,0.576324462890625,-0.4104800820350647,-0.6188212633132935
1789130058524783000,7.930783203125,0.3090095520019531,-0.025085944682359695,-0.4465358257293701
1789130058540799500,7.946799560546875,0.014187812805175781,0.24816466867923737,-0.440559983253479
1789130058556815400,7.9628154296875,0.6778793334960938,0.15536755323410034,-0.3694103956222534
1789130058572832000,7.97883203125,0.6531705856323242,-0.20895305275917053,-0.3785057067871094
1789130058588853000,7.99485302734375,0.2009449005126953,-0.3800618052482605,-0.6091728806495667
1789130058604868600,8.01086865234375,-0.11164283752441406,-0.20556294918060303,0.09488725662231445
1789130058620884000,8.026884033203125,0.10875988006591797,-0.26086145639419556,-0.5130659937858582
1789130058636898300,8.042898193359376,0.07182598114013672,0.15963757038116455,-0.004069805145263672
1789130058652912000,8.058912109375,-0.16121578216552734,0.14495578408241272,-0.2768535614013672
1789130058668931000,8.07493115234375,0.01775836944580078,-0.33723247051239014,-0.1676708459854126
1789130058692952800,8.098952880859375,0.03865623474121094,-0.5227357745170593,-0.1247098445892334
1789130058708969000,8.114968994140625,0.04659843444824219,0.24703969061374664,0.02234804630279541
1789130058724982300,8.130982177734374,0.15070343017578125,0.09165195375680923,-0.240675687789917
1789130058740996900,8.146996826171875,-0.13863372802734375,0.11336497217416763,0.010486006736755371
1789130058757011000,8.163010986328125,0.5196819305419922,-0.08823592960834503,-0.08385908603668213
1789130058773031000,8.179031005859375,0.2876148223876953,-0.06994417309761047,0.24135315418243408
1789130058789049000,8.195049072265626,0.12881183624267578,-0.10193471610546112,-0.28345274925231934
1789130058805066800,8.211066650390626,0.032448768615722656,-0.6244117617607117,-0.2735731601715088
1789130058821085700,8.227085693359374,0.07004547119140625,-0.23002687096595764,0.0916374921798706
1789130058837104000,8.243104248046874,0.18346595764160156,-0.2396615594625473,-0.4412146210670471
1789130058853119500,8.259119384765626,0.09667110443115234,-0.7372597455978394,0.07642531394958496
1789130058869132300,8.27513232421875,-0.08585071563720703,0.08778366446495056,-0.18680709600448608
1789130058885145900,8.291145751953126,-0.009408950805664062,0.016380002722144127,0.26004159450531006
1789130058901153300,8.3071533203125,-0.14841079711914062,-0.25227487087249756,-0.0691370964050293
1789130058917164300,8.323164306640624,0.26370906829833984,0.003718600608408451,0.6559121608734131
1789130058933176800,8.3391767578125,0.25959110260009766,0.371123343706131,0.3244049549102783
1789130058949190400,8.3551904296875,0.07566165924072266,-0.005485984496772289,0.343064546585083
1789130058965205000,8.371205078125,-0.40901947021484375,-0.11609718948602676,0.0674508810043335
1789130058981216800,8.387216796875,0.045815467834472656,-0.663085401058197,0.709028959274292
1789130058997228500,8.403228515625,0.5843238830566406,0.06163031980395317,0.5445696115493774
1789130059013240300,8.419240234375,-0.5562448501586914,-0.2509773373603821,0.5612401962280273
1789130059029256000,8.435255859375,-0.21123313903808594,-0.031111780554056168,0.4767749309539795
1789130059045269000,8.45126904296875,0.5368404388427734,0.3378492295742035,0.49093449115753174
1789130059061279700,8.46727978515625,-0.10466575622558594,0.21004092693328857,0.3518853187561035
1789130059077297000,8.483296875,-0.8157873153686523,0.48227953910827637,0.6575568914413452
1789130059093308200,8.49930810546875,0.24499225616455078,0.6919563412666321,0.6878863573074341
1789130059109321700,8.51532177734375,0.1766204833984375,0.8194259405136108,0.6869173049926758
1789130059125337900,8.531337890625,-0.3118877410888672,0.5783360600471497,0.7203810214996338
1789130059141351700,8.5473515625,0.37238502502441406,0.23647525906562805,0.4716954231262207
1789130059157364700,8.56336474609375,0.22265911102294922,-0.06531611829996109,0.4204518795013428
1789130059173379300,8.57937939453125,-0.38190650939941406,-0.257453590631485,0.4816305637359619
1789130059189395500,8.5953955078125,-0.11079883575439453,-0.6669433116912842,0.22757220268249512
1789130059205412600,8.61141259765625,-0.15797710418701172,-0.8277785181999207,0.31096315383911133
1789130059221430000,8.627429931640625,-0.3665456771850586,-0.5057016611099243,0.43198275566101074
1789130059237444400,8.6434443359375,0.06576251983642578,-0.33602315187454224,0.06506681442260742
1789130059253459000,8.659458984375,-0.5219926834106445,-0.679811418056488,0.278186559677124
1789130059269480200,8.675480224609375,-0.23383808135986328,0.34117764234542847,0.2633509635925293
1789130059285503500,8.69150341796875,0.04076099395751953,0.25339221954345703,0.20666933059692383
1789130059301521400,8.707521484375,-0.47862720489501953,-0.10482463240623474,0.15167236328125
1789130059317542000,8.7235419921875,0.39842987060546875,-0.14188480377197266,0.5350251197814941
1789130059333557000,8.739556884765625,0.02552032470703125,-0.024752385914325714,0.07254290580749512
1789130059349566500,8.75556640625,0.27535247802734375,0.06819488108158112,0.13125348091125488
1789130059365578500,8.77157861328125,0.17906475067138672,-0.050838205963373184,0.3585982322692871
1789130059381592000,8.787592041015625,0.025564193725585938,0.030080392956733704,0.23559975624084473
1789130059397608700,8.803608642578125,-0.26782989501953125,-0.06056234985589981,0.011337518692016602
1789130059413620700,8.819620849609375,-0.01696300506591797,0.16750314831733704,0.44544243812561035
1789130059429633000,8.835633056640624,-0.4367485046386719,-0.1741362363100052,0.09556937217712402
1789130059445643300,8.851643310546875,-0.6025152206420898,-0.22043873369693756,0.56353759765625
1789130059461652700,8.86765283203125,-0.721501350402832,-0.050025574862957,0.03612709045410156
1789130059477664800,8.883664794921875,-0.3412513732910156,0.115671806037426,0.09435057640075684
1789130059493677800,8.899677734375,0.31305980682373047,0.5117272734642029,1.0522527694702148
1789130059509689300,8.915689453125,0.037756919860839844,0.21415647864341736,0.47332024574279785
1789130059525699600,8.931699462890625,-0.10525226593017578,-0.04310717433691025,0.28718113899230957
1789130059541710300,8.94771044921875,0.043168067932128906,0.004210315644741058,0.1968216896057129
1789130059557716200,8.96371630859375,-0.7736568450927734,-0.8332198858261108,0.38234591484069824
1789130059573727500,8.9797275390625,-0.2556953430175781,-0.6999117732048035,-0.04187369346618652
1789130059589737500,8.995737548828124,-0.02704143524169922,-0.4020077884197235,0.41759395599365234
1789130059605745400,9.011745361328124,-0.21876907348632812,-0.0672474205493927,0.2905759811401367
1789130059621753600,9.027753662109374,0.2838783264160156,0.3742370009422302,0.38928842544555664
1789130059637766100,9.04376611328125,-0.3056793212890625,0.21525463461875916,0.9063999652862549
1789130059653776600,9.059776611328125,-0.2970609664916992,0.30753782391548157,0.3197188377380371
1789130059669784600,9.07578466796875,-0.44149017333984375,0.07415690273046494,0.6290445327758789
1789130059685798000,9.0917978515625,0.2099475860595703,-0.4506690502166748,0.41469764709472656
1789130059701809200,9.10780908203125,0.15570926666259766,-0.5461843609809875,-0.10950279235839844
1789130059717821000,9.123821044921876,-0.32024097442626953,-0.2765224575996399,0.4214465618133545
1789130059733833200,9.139833251953124,-0.1003875732421875,-0.24912764132022858,0.11964774131774902
1789130059749849300,9.155849365234374,-0.31333351135253906,-0.003269486129283905,0.3644556999206543
1789130059765858600,9.171858642578124,-0.0572662353515625,0.5001732707023621,0.3421623706817627
1789130059781877800,9.187877685546875,0.10602664947509766,0.30818337202072144,0.7192409038543701
1789130059797895700,9.203895751953125,0.2985992431640625,0.27551326155662537,0.4392983913421631
1789130059813907000,9.219906982421875,-0.014025688171386719,0.3165164589881897,0.4342184066772461
1789130059829915400,9.235915283203125,0.07363224029541016,-0.2644314467906952,0.3052330017089844
1789130059845932300,9.251932373046875,-0.09929370880126953,-0.18789665400981903,0.12623834609985352
1789130059861949200,9.26794921875,-0.4014616012573242,-0.13426241278648376,0.33078622817993164
1789130059877965000,9.283965087890625,-0.09871101379394531,-0.07658128440380096,-0.14149856567382812
1789130059893981000,9.29998095703125,-0.12168312072753906,0.09403141587972641,0.5219404697418213
1789130059909991700,9.31599169921875,0.09894466400146484,0.24496351182460785,0.3636128902435303
1789130059926003200,9.332003173828125,-0.0046844482421875,0.8114898204803467,0.4029700756072998
1789130059942020400,9.348020263671875,0.3216838836669922,0.3028210401535034,0.4353675842285156
1789130059958034400,9.364034423828125,-0.15133190155029297,-0.3665638864040375,-0.10534954071044922
1789130059974045000,9.380044921875,-0.6797103881835938,-0.40839436650276184,-0.04767107963562012
1789130059990055000,9.396054931640625,0.1317911148071289,-0.13495966792106628,0.270733118057251
1789130060006072000,9.412072021484375,0.09408378601074219,0.4457678198814392,0.06937599182128906
1789130060022083800,9.428083740234374,-0.3689556121826172,0.27757561206817627,0.45516347885131836
1789130060038098200,9.44409814453125,0.3762950897216797,0.39228343963623047,0.6747517585754395
1789130060054116900,9.460116943359376,-0.19485092163085938,0.6734128594398499,0.38113975524902344
1789130060070132200,9.47613232421875,0.22562885284423828,-0.09486986696720123,-0.2934267520904541
1789130060086147000,9.49214697265625,-0.7411184310913086,-0.2532522678375244,0.28197383880615234
1789130060102163700,9.508163818359375,-0.08295154571533203,-0.036556147038936615,0.10208582878112793
1789130060118180600,9.5241806640625,-0.3710012435913086,-0.1668402999639511,-0.08550381660461426
1789130060134199800,9.54019970703125,-0.5892515182495117,0.16590610146522522,0.48221445083618164
1789130060150214400,9.55621435546875,-0.4573631286621094,0.3299369513988495,0.48977041244506836
1789130060166231300,9.572231201171874,0.1425313949584961,0.23078638315200806,0.40920305252075195
1789130060182248700,9.588248779296874,-0.3485698699951172,0.23523922264575958,-0.00820159912109375
1789130060198269200,9.604269287109375,0.16702938079833984,-0.4763045310974121,0.046172142028808594
1789130060222290200,9.628290283203125,-0.08478450775146484,0.09347287565469742,0.5726275444030762
1789130060238304300,9.64430419921875,0.44678211212158203,0.06747815757989883,0.13132762908935547
1789130060254319000,9.660319091796875,-0.004302024841308594,-0.8358728289604187,-0.5232155323028564
1789130060270333700,9.676333740234375,0.1926736831665039,-0.5501465201377869,-0.18456506729125977
1789130060286351600,9.6923515625,-0.29914093017578125,0.2362830638885498,0.0710296630859375
1789130060302368800,9.70836865234375,-0.31171321868896484,0.4914264678955078,0.33534765243530273
1789130060318382000,9.724382080078126,0.4561271667480469,0.32020437717437744,0.6861896514892578
1789130060334396700,9.740396728515625,0.11510753631591797,-0.04197558015584946,0.22341203689575195
1789130060350414800,9.756414794921875,-0.057417869567871094,-0.6748265624046326,-0.2557096481323242
1789130060366437000,9.77243701171875,-0.2962350845336914,-0.7138559818267822,-0.12826776504516602
1789130060382457600,9.78845751953125,0.1035757064819336,0.1516226828098297,0.3599820137023926
1789130060398470400,9.804470458984374,-0.015232086181640625,0.22835759818553925,0.27187061309814453
1789130060414486500,9.820486572265626,0.21109771728515625,0.1477380394935608,0.2595977783203125
1789130060430504400,9.83650439453125,-0.061801910400390625,0.5315577983856201,0.0344843864440918
1789130060446524000,9.85252392578125,0.4790372848510742,-0.26029765605926514,0.006386280059814453
1789130060462539000,9.8685390625,0.2813138961791992,-0.7536848783493042,-0.4453723430633545
1789130060478556200,9.88455615234375,-0.012854576110839844,-0.5110658407211304,-0.369006872177124
1789130060494570200,9.9005703125,-0.24195575714111328,-0.2852881848812103,-0.45592188835144043
1789130060510586400,9.91658642578125,0.24937152862548828,0.4586164355278015,-0.23932933807373047
1789130060526599700,9.932599609375,0.7776403427124023,0.48071324825286865,-0.492694616317749
1789130060542615000,9.948614990234375,0.12247085571289062,-0.23393499851226807,-0.42436909675598145
1789130060558632700,9.9646328125,0.7324848175048828,0.12888579070568085,-0.8983156681060791
1789130060574645500,9.9806455078125,0.4008665084838867,0.03896452486515045,-1.0580105781555176
1789130060590658800,9.996658935546876,-0.6143836975097656,-0.14552927017211914,-0.6685841083526611
1789130060606677200,10.01267724609375,0.45730113983154297,0.5122506618499756,-0.28620433807373047
1789130060622693600,10.028693603515626,0.38990116119384766,0.2540290951728821,-0.14418935775756836
1789130060638712000,10.044712158203126,0.8612689971923828,0.007177174091339111,-0.7571656703948975
1789130060654731800,10.060731689453124,0.3870429992675781,-0.41772744059562683,-1.0501220226287842
1789130060670748200,10.076748046875,-0.30543994903564453,-0.2710869014263153,-0.5068240165710449
1789130060686770000,10.09277001953125,-0.29003143310546875,-0.008710205554962158,-0.4058060646057129
1789130060710801700,10.1168017578125,-0.22043132781982422,0.08149686455726624,-0.6082067489624023
1789130060726818300,10.132818359375,-0.009622573852539062,0.256532222032547,-0.4281280040740967
1789130060742831900,10.148831787109375,0.0936737060546875,0.4649234414100647,-0.07504963874816895
1789130060758841300,10.16484130859375,-0.1413402557373047,0.2737812399864197,-0.14305567741394043
1789130060774850800,10.180850830078125,-0.09693336486816406,-0.33529525995254517,-0.16258740425109863
1789130060790867200,10.1968671875,0.24858570098876953,-0.396773099899292,-0.21877551078796387
1789130060806885000,10.212885009765625,0.3179445266723633,-0.22190529108047485,-0.4465909004211426
1789130060822901000,10.22890087890625,-0.7410297393798828,-0.5307386517524719,-0.573706865310669
1789130060838909400,10.244909423828124,-0.6310157775878906,0.06764943897724152,0.12570476531982422
1789130060854926300,10.26092626953125,0.3690004348754883,0.42156144976615906,0.31484413146972656
1789130060870941700,10.276941650390626,0.5788402557373047,-0.1155860424041748,-0.02252793312072754
1789130060886951400,10.292951416015624,0.3031606674194336,-0.5229609608650208,-0.6033484935760498
1789130060902960600,10.308960693359374,-0.8536357879638672,-0.7734251022338867,-0.5803258419036865
1789130060918974000,10.324973876953125,-0.5479669570922852,-0.39329031109809875,0.05534672737121582
1789130060934985500,10.3409853515625,0.6333417892456055,0.3298138678073883,-0.10653352737426758
1789130060950996000,10.356995849609374,-0.10235118865966797,0.07712459564208984,-0.2531242370605469
1789130060967006000,10.373005859375,0.27983665466308594,0.17894817888736725,0.08620476722717285
1789130060983020500,10.3890205078125,0.7747869491577148,-0.13536149263381958,0.06764841079711914
1789130060999032000,10.405031982421875,-0.44023990631103516,-0.6460832357406616,-0.3845374584197998
1789130061015037200,10.421037109375,-0.15379714965820312,-0.2890670597553253,-0.2609083652496338
1789130061031044900,10.437044921875,0.34635353088378906,0.07615494728088379,-0.2468094825744629
1789130061047052800,10.453052734375,-0.2462158203125,0.10939699411392212,0.33209848403930664
1789130061063061800,10.469061767578125,0.5358724594116211,0.06625145673751831,0.35961055755615234
1789130061079080200,10.485080078125,0.4322080612182617,-0.42273789644241333,-0.11572885513305664
1789130061095097600,10.50109765625,0.44997692108154297,-0.6917126178741455,-0.41609835624694824
1789130061111113000,10.517113037109375,0.1026620864868164,-0.1129491925239563,-0.12411928176879883
1789130061127131600,10.533131591796876,-0.22427940368652344,0.4342672824859619,0.4673604965209961
1789130061143154700,10.54915478515625,0.2174224853515625,-0.13439446687698364,0.1939074993133545
1789130061159173400,10.56517333984375,0.2700538635253906,0.060170531272888184,0.4213876724243164
1789130061175189500,10.581189453125,0.2840709686279297,-0.5573197603225708,-0.6226434707641602
1789130061191207400,10.59720751953125,0.0016183853149414062,-0.5430712103843689,-0.13164448738098145
1789130061207228200,10.613228271484376,-0.09343528747558594,0.04959136247634888,0.43016934394836426
1789130061223251000,10.6292509765625,-0.18760967254638672,-0.12756633758544922,0.2113173007965088
1789130061239269600,10.64526953125,0.44721221923828125,-0.3035091161727905,-0.29518628120422363
1789130061255280600,10.66128076171875,-0.15181732177734375,-0.46449851989746094,-0.10142016410827637
1789130061271289000,10.6772890625,-0.11276531219482422,0.0011410117149353027,0.016317367553710938
1789130061287299300,10.69329931640625,0.23635578155517578,0.47741642594337463,0.5950942039489746
1789130061303313200,10.709313232421875,0.48015594482421875,0.35544463992118835,0.12405133247375488
1789130061319331300,10.725331298828126,0.04980945587158203,-0.6883265972137451,-0.32163071632385254
1789130061335347200,10.74134716796875,-0.07876777648925781,-0.1957339644432068,0.023446083068847656
1789130061351363800,10.75736376953125,0.17618370056152344,0.18899554014205933,0.6372849941253662
1789130061367378400,10.77337841796875,0.22610187530517578,-0.09992283582687378,0.18263006210327148
1789130061383393800,10.789393798828126,0.3384981155395508,-0.8532348275184631,-0.2943451404571533
1789130061399413200,10.805413330078125,-0.24905014038085938,-0.7568846940994263,-0.09924745559692383
1789130061415430400,10.821430419921874,0.21085834503173828,-0.24940049648284912,0.541079044342041
1789130061431453200,10.837453125,0.24314022064208984,-0.7011807560920715,-0.011745691299438477
1789130061447478500,10.853478515625,0.03539276123046875,-0.7450421452522278,-0.4072389602661133
1789130061463503000,10.869503173828125,0.21415996551513672,-0.24729204177856445,0.14321255683898926
1789130061479522300,10.885522216796875,-0.20109844207763672,-0.07547140121459961,0.5529792308807373
1789130061495539200,10.901539306640625,0.2792673110961914,-0.9342702627182007,-0.12993955612182617
1789130061511558400,10.917558349609376,-0.22841930389404297,-1.3972431421279907,-0.21944928169250488
1789130061527580000,10.933579833984375,0.2660083770751953,-0.341396689414978,0.12267398834228516
1789130061551609000,10.957609130859375,0.008650779724121094,-0.13644802570343018,0.07118678092956543
1789130061567630600,10.973630615234375,-0.3614540100097656,0.04245448112487793,0.002743959426879883
1789130061583650600,10.989650634765624,0.07201099395751953,-0.549350380897522,-0.2831287384033203
1789130061599673000,11.005673095703125,0.6418857574462891,0.010563135147094727,0.2842264175415039
1789130061615692500,11.021692626953126,0.5607547760009766,-0.30243921279907227,-0.11945772171020508
1789130061631715600,11.037715576171875,-0.14167404174804688,-0.3846144676208496,-0.17151999473571777
1789130061647732700,11.053732666015625,-0.04741096496582031,-0.5170118808746338,-0.3308084011077881
1789130061663748400,11.069748291015625,-0.06655597686767578,0.16471600532531738,0.4588618278503418
1789130061679757800,11.0857578125,0.18612957000732422,-0.05378603935241699,0.21820807456970215
1789130061695779000,11.101779052734376,0.10895061492919922,0.05324351787567139,-0.19872403144836426
1789130061719815200,11.125815185546875,-0.00345611572265625,-0.02479422092437744,0.05373430252075195
1789130061735838200,11.141838134765624,0.5815334320068359,-0.5429345369338989,-0.21019601821899414
1789130061751859000,11.15785888671875,0.34169578552246094,-0.28125953674316406,0.13713669776916504
1789130061767875800,11.173875732421875,-0.45772457122802734,0.03544890880584717,0.2847304344177246
1789130061783893000,11.18989306640625,-0.3473196029663086,-0.18950653076171875,0.09943079948425293
1789130061799914800,11.205914794921876,0.5672807693481445,0.7217528820037842,0.30856776237487793
1789130061815935500,11.221935546875,0.5438976287841797,0.5604340434074402,0.13311409950256348
1789130061831950600,11.23795068359375,-0.3043785095214844,-0.2517353296279907,0.004561185836791992
1789130061847967700,11.2539677734375,-0.5398235321044922,0.05303776264190674,-0.5062658786773682
1789130061863981800,11.26998193359375,-0.4346151351928711,0.19184160232543945,0.24587059020996094
1789130061879996400,11.285996337890625,0.036070823669433594,0.26279258728027344,0.6149611473083496
1789130061896012300,11.30201220703125,-0.1263437271118164,-0.3502321243286133,-0.20500397682189941
1789130061912025900,11.31802587890625,0.3951854705810547,0.09239053726196289,-0.09972572326660156
1789130061928032500,11.334032470703125,0.33693885803222656,0.5552238821983337,0.1363818645477295
1789130061944042800,11.350042724609375,-0.444732666015625,-0.3881189823150635,-0.09020161628723145
1789130061960055800,11.366055908203125,-0.8712968826293945,-0.5017539262771606,-0.0166776180267334
1789130061976061000,11.38206103515625,0.23896026611328125,-0.11388719081878662,-0.5633389949798584
1789130061992071400,11.398071533203124,0.2235555648803711,1.0194017887115479,0.10927009582519531
1789130062008081000,11.414080810546874,-0.4378042221069336,0.1043311357498169,0.4793436527252197
1789130062024084700,11.430084716796875,-0.05784130096435547,-0.22066009044647217,-0.10403895378112793
1789130062048091000,11.4540908203125,0.07278060913085938,-0.19310855865478516,-0.1826181411743164
1789130062064103700,11.470103759765625,0.2122516632080078,-0.19576919078826904,0.08984661102294922
1789130062080118300,11.4861181640625,-0.4082345962524414,-0.029558181762695312,0.14373254776000977
1789130062096141300,11.502141357421875,0.031981468200683594,0.2030634880065918,0.20121455192565918
1789130062112158500,11.518158447265625,0.1327991485595703,0.21599793434143066,0.08493328094482422
1789130062128175600,11.534175537109375,0.38736629486083984,-0.4649161100387573,-0.3411388397216797
1789130062144186400,11.550186279296875,0.06098175048828125,0.06615912914276123,0.3435230255126953
1789130062160203000,11.566203125,-0.41773509979248047,0.24929773807525635,0.3607809543609619
1789130062176210200,11.582210205078125,0.4685802459716797,-0.1414850950241089,-0.11103010177612305
1789130062192222000,11.598221923828126,0.21046066284179688,-0.18700039386749268,0.05425238609313965
1789130062208234000,11.61423388671875,-0.22509288787841797,0.652816653251648,0.37328624725341797
1789130062224252000,11.630251953125,-0.19692420959472656,0.5817860960960388,0.31774115562438965
1789130062240269800,11.646269775390625,0.13281917572021484,-0.4580371379852295,-0.2772336006164551
1789130062264292400,11.670292236328125,0.11704444885253906,0.39527297019958496,0.0479738712310791
1789130062280308700,11.686308837890625,0.32152557373046875,-0.25819218158721924,-0.3539395332336426
1789130062296323600,11.702323486328124,0.3102426528930664,0.23868143558502197,-0.22989201545715332
1789130062312336000,11.7183359375,-0.13624095916748047,0.7833600044250488,0.38100528717041016
1789130062328349700,11.734349609375,-0.42470836639404297,-0.15119600296020508,-0.10446953773498535
1789130062344359000,11.75035888671875,0.8472471237182617,-0.18238162994384766,-0.24897527694702148
1789130062360361700,11.76636181640625,0.28084278106689453,0.13232266902923584,-0.06300973892211914
1789130062376368000,11.7823681640625,-0.31945323944091797,-0.2789628505706787,-0.035932302474975586
1789130062392369700,11.79836962890625,0.1627645492553711,0.03156018257141113,-0.1902472972869873
1789130062408374500,11.81437451171875,0.008725166320800781,0.17986583709716797,-0.3124978542327881
1789130062424378600,11.830378662109375,0.3871898651123047,0.27997028827667236,0.37907910346984863
1789130062440387000,11.846386962890625,-0.1357135772705078,0.5026814937591553,0.0032987594604492188
1789130062456393200,11.862393310546874,-0.0936899185180664,0.5542324185371399,0.15509295463562012
1789130062472402700,11.878402587890625,0.3984689712524414,0.4513719081878662,0.001890420913696289
1789130062488408800,11.894408935546876,-0.21424102783203125,0.6746718287467957,0.22365641593933105
1789130062504413400,11.910413330078125,-0.19106674194335938,0.6332971453666687,0.09615445137023926
1789130062520423200,11.926423095703125,0.012432098388671875,0.16469168663024902,-0.017516374588012695
1789130062536424400,11.942424560546876,0.10721969604492188,0.23927664756774902,0.18841767311096191
1789130062552419800,11.958419921875,0.2692232131958008,0.3465026021003723,-0.11883902549743652
1789130062568427300,11.97442724609375,-0.11044788360595703,0.40208113193511963,0.33065080642700195
1789130062584434000,11.990433837890626,0.046851158142089844,0.3058931827545166,0.40724635124206543
1789130062600436500,12.0064365234375,0.18960285186767578,0.691620409488678,0.2777996063232422
1789130062616441300,12.02244140625,0.9928712844848633,0.4627261757850647,-0.2555851936340332
1789130062632448500,12.038448486328125,-0.19611167907714844,0.3276427388191223,0.3525986671447754
1789130062648459300,12.054459228515626,-0.33549022674560547,0.22155821323394775,0.20646023750305176
1789130062664472300,12.070472412109375,0.7019100189208984,0.0733027458190918,-0.17241382598876953
1789130062680483300,12.0864833984375,0.13507080078125,-0.1438753604888916,0.09663510322570801
1789130062696493800,12.102493896484376,-0.2159261703491211,0.12770509719848633,0.20201754570007324
1789130062712503300,12.11850341796875,-0.04473304748535156,-0.1072307825088501,-0.19089555740356445
1789130062728512000,12.134511962890626,-0.32741355895996094,-0.32517802715301514,0.06071019172668457
1789130062744520700,12.150520751953126,-0.0032129287719726562,0.08120572566986084,-0.07612061500549316
1789130062760527000,12.166527099609375,-0.07089614868164062,-0.10293006896972656,-0.028920888900756836
1789130062776540700,12.182540771484375,0.25385284423828125,0.022362232208251953,-0.2529635429382324
1789130062792555800,12.1985556640625,0.14660358428955078,-0.04845154285430908,0.036684513092041016
1789130062808571600,12.214571533203125,0.04387092590332031,0.224504292011261,0.06650638580322266
1789130062824578000,12.230578125,-0.13454151153564453,-0.07675325870513916,-0.20299959182739258
1789130062840589300,12.24658935546875,-0.4565000534057617,-0.03175950050354004,-0.26468729972839355
1789130062856600300,12.262600341796874,-0.36166858673095703,-0.01982426643371582,0.16165709495544434
1789130062872612000,12.278612060546875,0.6056051254272461,0.053143978118896484,-0.17646074295043945
1789130062888623400,12.294623291015625,0.2404947280883789,0.00010919570922851562,0.043822288513183594
1789130062904631300,12.31063134765625,-0.5459051132202148,0.1868240237236023,-0.2180325984954834
1789130062920643300,12.326643310546874,-0.3466482162475586,0.38803213834762573,0.0378565788269043
1789130062936657000,12.342656982421875,0.27530956268310547,0.014345765113830566,0.16063547134399414
1789130062952667600,12.358667724609376,0.31882286071777344,0.09878706932067871,0.19404053688049316
1789130062968675300,12.37467529296875,-0.00028324127197265625,0.09309124946594238,0.08521699905395508
1789130062984684800,12.390684814453126,0.2965116500854492,-0.19683873653411865,0.02083277702331543
1789130063000697000,12.406697021484375,0.8127222061157227,-0.022418618202209473,0.051336050033569336
1789130063016712700,12.422712646484374,-0.10111045837402344,0.1181688904762268,0.4552459716796875
1789130063032720100,12.43872021484375,0.7136287689208984,-0.396234393119812,0.012058019638061523
1789130063048727300,12.454727294921875,0.5683355331420898,0.26458489894866943,0.2593975067138672
1789130063064736500,12.470736572265626,0.16925907135009766,0.3602425456047058,0.018285036087036133
1789130063080751900,12.486751953125,0.31157588958740234,0.7374385595321655,0.31231689453125
1789130063096766500,12.502766357421875,0.4538536071777344,0.04228711128234863,0.30339598655700684
1789130063112780500,12.518780517578126,0.20447826385498047,0.17534679174423218,-0.16179490089416504
1789130063128793000,12.53479296875,0.06845855712890625,0.47895652055740356,-0.3965792655944824
1789130063144800800,12.55080078125,0.18077850341796875,0.23493558168411255,-0.24694132804870605
1789130063160811800,12.566811767578125,0.42559337615966797,0.20053476095199585,-0.279848575592041
1789130063176829400,12.582829345703125,-0.16452407836914062,0.14090490341186523,-0.19941139221191406
1789130063192845600,12.598845458984375,0.056548118591308594,0.12976670265197754,-0.41349196434020996
1789130063208863000,12.614863037109375,-0.1769866943359375,0.04396343231201172,-0.6181983947753906
1789130063224878600,12.630878662109374,-0.3462400436401367,-0.03480297327041626,-0.21708059310913086
1789130063240891600,12.6468916015625,-0.337677001953125,0.09080302715301514,-0.31141090393066406
1789130063256901000,12.662901123046876,-0.009996414184570312,-0.0678752064704895,-0.5624983310699463
1789130063272905700,12.67890576171875,-0.3814716339111328,-0.1486847996711731,-0.4474647045135498
1789130063288917800,12.694917724609375,-0.6317272186279297,-0.20775198936462402,-0.22749662399291992
1789130063304933600,12.71093359375,-0.04244709014892578,0.12291961908340454,-0.11481642723083496
1789130063320941000,12.726941162109375,0.3173980712890625,0.10574394464492798,-0.5827209949493408
1789130063336953900,12.742953857421876,-0.5482168197631836,0.05671346187591553,-0.21944117546081543
1789130063352965400,12.75896533203125,0.10669612884521484,0.19858288764953613,-0.2681417465209961
1789130063368981500,12.7749814453125,0.1983165740966797,-0.05884873867034912,-0.2043626308441162
1789130063384999400,12.79099951171875,0.1435995101928711,-0.26817750930786133,0.047528743743896484
1789130063401016800,12.807016845703124,0.48734188079833984,-0.012707352638244629,0.10485959053039551
1789130063417025500,12.823025634765624,-0.0820159912109375,0.2785365581512451,-0.14889073371887207
1789130063433036000,12.8390361328125,0.13971710205078125,0.14137983322143555,-0.16252350807189941
1789130063449043200,12.855043212890624,0.28481388092041016,-0.1820056438446045,0.18803787231445312
1789130063465053200,12.87105322265625,0.10895633697509766,-0.12285161018371582,0.1605381965637207
1789130063481060900,12.887060791015625,-0.17625713348388672,-0.3060593605041504,0.08817601203918457
1789130063497064000,12.90306396484375,-0.47620105743408203,0.0357438325881958,0.10252213478088379
1789130063513064700,12.919064697265625,0.31517601013183594,-0.2875938415527344,0.28896307945251465
1789130063529066200,12.935066162109376,0.18833541870117188,-0.23397791385650635,-0.007615327835083008
1789130063545070300,12.9510703125,-0.42699432373046875,-0.16031229496002197,0.3428494930267334
1789130063561078500,12.96707861328125,-0.3048362731933594,0.1706051230430603,0.10660290718078613
1789130063577093600,12.98309375,-0.483673095703125,-0.08080935478210449,0.024036169052124023
1789130063593099500,12.999099609375,-0.04207897186279297,0.08210647106170654,0.11588621139526367
1789130063609109500,13.015109619140626,-0.45319271087646484,0.027579307556152344,0.321439266204834
1789130063625121000,13.03112109375,-0.17432022094726562,0.20504862070083618,0.20131611824035645
1789130063641127400,13.04712744140625,-0.31092166900634766,0.23372721672058105,0.24523019790649414
1789130063657129000,13.06312890625,0.16025066375732422,0.27063125371932983,-0.13638615608215332
1789130063673133000,13.079133056640625,0.20463180541992188,0.3975977301597595,0.5196259021759033
1789130063689140500,13.095140380859375,0.22597026824951172,0.264160692691803,0.1427309513092041
1789130063705149000,13.11114892578125,0.2509031295776367,0.024747133255004883,-0.23070907592773438
1789130063721155000,13.127155029296874,-0.4612417221069336,0.03227555751800537,0.4475595951080322
1789130063737155000,13.143155029296874,0.4519309997558594,0.12720507383346558,0.3187243938446045
1789130063753158400,13.159158447265625,0.5589284896850586,-0.20712101459503174,0.4016859531402588
1789130063777167600,13.183167724609374,0.09495353698730469,0.053134918212890625,-0.0015916824340820312
1789130063793178400,13.199178466796875,-0.06336021423339844,-0.040860772132873535,-0.24113965034484863
1789130063809189400,13.215189453125,0.15668201446533203,0.19069087505340576,0.24212908744812012
1789130063825195000,13.231195068359375,-0.244140625,0.08247250318527222,0.3518502712249756
1789130063841204000,13.247203857421875,-0.03196239471435547,-0.10259294509887695,-0.09738850593566895
1789130063857209900,13.2632099609375,-0.26151084899902344,-0.2864435911178589,-0.23776960372924805
1789130063873212200,13.279212158203125,-0.5626430511474609,0.14178097248077393,0.03742575645446777
1789130063889218000,13.295218017578126,0.3625173568725586,0.5421205759048462,0.12956714630126953
1789130063905228800,13.311228759765624,-0.1895313262939453,-0.10623455047607422,-0.0025632381439208984
1789130063921236200,13.327236328125,-0.06220436096191406,0.19035035371780396,0.2587146759033203
1789130063937243000,13.343242919921876,0.06400871276855469,0.20470845699310303,0.3893895149230957
1789130063953252000,13.359252197265626,-0.21964168548583984,0.11847585439682007,-0.15600156784057617
1789130063969265000,13.375264892578125,-0.2848987579345703,0.03914719820022583,0.09017348289489746
1789130063985279500,13.391279541015624,-0.038771629333496094,0.2707784175872803,0.29758214950561523
1789130064001291000,13.407291015625,0.3035001754760742,0.5474697947502136,0.14394021034240723
1789130064017301800,13.4233017578125,0.05114459991455078,0.5959928631782532,-0.2173004150390625
1789130064033320200,13.4393203125,-0.3685331344604492,0.18124055862426758,0.07423686981201172
1789130064049335000,13.4553349609375,0.5031681060791016,0.21980786323547363,0.4325072765350342
1789130064065345000,13.471344970703125,0.04437446594238281,-0.12399280071258545,0.4855020046234131
1789130064081358300,13.4873583984375,-0.4353780746459961,-0.06776189804077148,0.25792813301086426
1789130064097374000,13.5033740234375,-0.02845001220703125,0.18899470567703247,0.28189969062805176
1789130064113384400,13.519384521484374,-0.20541667938232422,0.3269806504249573,0.3656737804412842
1789130064129395500,13.5353955078125,-0.13417625427246094,0.031022250652313232,0.35294342041015625
1789130064145406200,13.55140625,0.11380577087402344,0.06361597776412964,0.11021089553833008
1789130064161416200,13.567416259765626,-0.5546627044677734,0.4044649004936218,0.4048006534576416
1789130064177431800,13.583431884765625,-0.1527576446533203,0.3511057496070862,0.1593918800354004
1789130064193447400,13.599447509765625,-0.05748271942138672,0.04745984077453613,0.19809794425964355
1789130064209461000,13.6154609375,-0.15137481689453125,0.16087323427200317,-0.03899717330932617
1789130064225475300,13.631475341796875,-0.23647022247314453,0.03335827589035034,0.20928621292114258
1789130064241491500,13.647491455078125,-0.4195718765258789,0.12115609645843506,-0.32787179946899414
1789130064257498600,13.66349853515625,0.019134521484375,0.20273613929748535,0.004379749298095703
1789130064273506600,13.679506591796875,0.05281257629394531,0.21686846017837524,0.41629910469055176
1789130064289515000,13.695514892578124,0.5299673080444336,0.470366895198822,0.3051145076751709
1789130064305524200,13.711524169921875,0.1760997772216797,0.5574671030044556,0.014360666275024414
1789130064321535200,13.72753515625,0.11423492431640625,0.1831674575805664,0.05862259864807129
1789130064337548800,13.743548828125,0.33109474182128906,0.3417831063270569,0.17132830619812012
1789130064353562600,13.759562744140625,-0.2037372589111328,-0.0034847259521484375,0.1698451042175293
1789130064369576200,13.775576171875,-0.2738218307495117,0.25413864850997925,0.0969228744506836
1789130064385589000,13.791589111328125,0.18256473541259766,0.13835889101028442,0.03542137145996094
1789130064401604000,13.80760400390625,-0.1577606201171875,0.0814703106880188,0.27678847312927246
1789130064417618000,13.823617919921874,0.060173988342285156,0.05338233709335327,0.25627970695495605
1789130064433630000,13.8396298828125,0.21161460876464844,-0.058004915714263916,0.23873639106750488
1789130064449641700,13.855641845703126,-0.44115638732910156,0.07972872257232666,0.36648011207580566
1789130064465650200,13.871650146484376,-0.19595623016357422,-0.02898949384689331,0.55448317527771
1789130064481659600,13.88765966796875,-0.05248069763183594,-0.030263781547546387,0.5894484519958496
1789130064497669000,13.903669189453124,-0.09046554565429688,-0.4087398648262024,0.1556854248046875
1789130064513684500,13.9196845703125,-0.2537374496459961,-0.6457581520080566,-0.17731404304504395
1789130064529696000,13.935696044921874,-0.3640108108520508,-0.017252087593078613,0.20704030990600586
1789130064545703700,13.95170361328125,-0.19421100616455078,0.1277502179145813,0.31566715240478516
1789130064561712400,13.96771240234375,0.34164905548095703,0.10000669956207275,-0.04907369613647461
1789130064577726700,13.983726806640625,0.5306034088134766,0.16904163360595703,0.29360294342041016
1789130064593745400,13.999745361328126,0.3581514358520508,0.010625958442687988,0.552229642868042
1789130064609760000,14.015760009765625,0.8041133880615234,0.40540117025375366,0.39224934577941895
1789130064633784800,14.039784912109376,0.16553688049316406,0.20954394340515137,0.6251528263092041
1789130064649806300,14.055806396484375,0.13219356536865234,0.22671568393707275,0.28576040267944336
1789130064665827600,14.07182763671875,-0.02768993377685547,0.16591227054595947,0.34961533546447754
1789130064681846500,14.087846435546876,-0.1471118927001953,0.2978006899356842,0.6190330982208252
1789130064697863200,14.10386328125,0.2443990707397461,0.06378865242004395,0.33686113357543945
1789130064713881300,14.11988134765625,-0.06211376190185547,0.2711680233478546,0.47058820724487305
1789130064737904400,14.143904296875,-0.008481979370117188,0.34328919649124146,0.20398712158203125
1789130064753917700,14.159917724609375,-0.27361583709716797,0.14871525764465332,0.5106582641601562
1789130064769933000,14.17593310546875,-0.7813100814819336,0.1451696753501892,0.2913055419921875
1789130064785947400,14.191947509765624,-0.32703113555908203,0.2698555588722229,0.14165973663330078
1789130064801959000,14.207958984375,-0.8029308319091797,0.12514835596084595,-0.1387009620666504
1789130064817967000,14.223967041015625,-0.727229118347168,0.3271140158176422,0.7077493667602539
1789130064833974000,14.23997412109375,0.4165363311767578,-0.33181077241897583,0.13145160675048828
1789130064849988400,14.25598828125,-0.3065500259399414,-0.10482335090637207,-0.11984395980834961
1789130064866004200,14.272004150390625,-0.7252836227416992,0.0423203706741333,0.26505231857299805
1789130064882020900,14.288020751953125,0.6884336471557617,0.43917930126190186,0.20140457153320312
1789130064898038500,14.30403857421875,0.02250957489013672,0.40110892057418823,0.7408761978149414
1789130064914054000,14.320053955078125,0.5601873397827148,0.17307302355766296,0.4788088798522949
1789130064930071600,14.336071533203125,0.09238052368164062,0.10954204201698303,0.0017299652099609375
1789130064946087700,14.352087646484375,-0.9590778350830078,0.37847185134887695,0.46194934844970703
1789130064962104300,14.368104248046874,0.9135541915893555,0.7160883545875549,-0.04165458679199219
1789130064978118700,14.38411865234375,1.010605812072754,0.09974411129951477,0.43906259536743164
1789130064994129200,14.400129150390624,0.06402778625488281,-0.03580367565155029,0.5220975875854492
1789130065010138000,14.41613818359375,0.8062524795532227,0.1300373077392578,0.05259227752685547
1789130065026150100,14.432150146484375,0.09270668029785156,0.2130039632320404,0.35403919219970703
1789130065042158800,14.448158935546875,0.45224761962890625,0.4988032579421997,0.21367406845092773
1789130065058172400,14.46417236328125,0.7779035568237305,0.2682969868183136,0.28481101989746094
1789130065074190300,14.4801904296875,0.5291938781738281,0.39167118072509766,-0.013278961181640625
1789130065090206000,14.4962060546875,0.07085132598876953,0.4053727686405182,0.3315467834472656
1789130065106218800,14.51221875,0.34607505798339844,0.3397938013076782,0.07009267807006836
1789130065122228000,14.52822802734375,0.3560657501220703,0.09252509474754333,-0.01376485824584961
1789130065138237200,14.5442373046875,0.2726707458496094,0.5117529630661011,0.3898458480834961
1789130065154251300,14.560251220703124,-0.011341094970703125,0.26929348707199097,0.3657526969909668
1789130065170267000,14.576266845703126,-0.049594879150390625,-0.01792970299720764,-0.05401325225830078
1789130065186277600,14.592277587890624,0.23147964477539062,0.5751364827156067,0.0424952507019043
1789130065202284500,14.608284423828126,0.2804412841796875,0.435244619846344,0.503913402557373
1789130065218293000,14.62429296875,0.10502910614013672,0.7108346223831177,0.26901674270629883
1789130065234300000,14.6402998046875,0.06763553619384766,0.6276447772979736,-0.016268253326416016
1789130065250306800,14.656306884765625,-0.7728195190429688,-0.005969211459159851,-0.0447382926940918
1789130065266313700,14.672313720703125,-0.3941783905029297,0.176301047205925,-0.06932687759399414
1789130065282321400,14.6883212890625,-0.38936519622802734,-0.01306384801864624,0.35762453079223633
1789130065298337000,14.7043369140625,0.5112667083740234,-0.1257120668888092,-0.016685009002685547
1789130065314351000,14.72035107421875,-0.047860145568847656,0.2468399703502655,0.18710803985595703
1789130065330367500,14.736367431640625,-0.23185062408447266,-0.038200583308935165,0.4500460624694824
1789130065346379500,14.752379638671876,0.47739601135253906,-0.23004379868507385,0.046759605407714844
1789130065362388700,14.768388671875,-0.4389762878417969,-0.028086207807064056,0.33318042755126953
1789130065378400500,14.784400390625,-0.03887748718261719,0.007047288119792938,0.7316207885742188
1789130065394410800,14.80041064453125,0.7701225280761719,-0.46077948808670044,0.25387048721313477
1789130065410420000,14.816419921875,-0.745025634765625,0.49276432394981384,0.717949390411377
1789130065426433500,14.83243359375,0.1376495361328125,0.4056626260280609,0.3469657897949219
1789130065442446800,14.84844677734375,0.8746681213378906,0.25580310821533203,0.09467697143554688
1789130065458461400,14.86446142578125,0.2333984375,0.2008221447467804,0.6550068855285645
1789130065474475800,14.880475830078124,-0.05914306640625,-0.21403390169143677,1.2511849403381348
1789130065490486300,14.896486328125,0.8650493621826172,-0.2597276270389557,0.3909001350402832
1789130065506497500,14.91249755859375,0.03139495849609375,0.21544374525547028,0.46534204483032227
1789130065522507800,14.9285078125,-0.03674793243408203,-0.10819580405950546,0.8244647979736328
1789130065538515500,14.944515380859375,0.3644084930419922,-0.24276846647262573,0.6712942123413086
1789130065554529300,14.960529296875,0.4767341613769531,0.09203830361366272,0.5497236251831055
1789130065570538800,14.976538818359375,-0.1078786849975586,0.11315788328647614,0.6829948425292969
1789130065586547000,14.992546875,0.3205223083496094,0.2436615228652954,0.5041298866271973
1789130065602555400,15.008555419921874,0.08696746826171875,0.3343881070613861,0.36090850830078125
1789130065618567700,15.024567626953125,0.04152965545654297,-0.019985683262348175,0.43088674545288086
1789130065634577700,15.04057763671875,0.1910409927368164,0.07550123333930969,0.24479389190673828
1789130065650586400,15.05658642578125,-0.12553882598876953,0.04687806963920593,0.4542355537414551
1789130065666597600,15.07259765625,-0.2068805694580078,-0.04033142700791359,0.38018369674682617
1789130065682611000,15.08861083984375,0.08690071105957031,-0.33737558126449585,0.32737207412719727
1789130065698625300,15.104625244140625,0.12396812438964844,0.0724186822772026,0.5224285125732422
1789130065714637800,15.120637939453125,0.5431976318359375,0.5189986228942871,0.2593693733215332
1789130065730646800,15.136646728515625,0.034050941467285156,0.33682548999786377,0.34491729736328125
1789130065746661400,15.152661376953125,0.06515026092529297,0.11675363779067993,0.29305267333984375
1789130065762673000,15.1686728515625,0.08666801452636719,0.040705520659685135,-0.07960939407348633
1789130065778687000,15.18468701171875,0.12622737884521484,0.14184461534023285,0.10508918762207031
1789130065794696200,15.2006962890625,0.23279666900634766,0.15237535536289215,0.20844697952270508
1789130065810708500,15.21670849609375,0.1659221649169922,0.05216119438409805,0.08538389205932617
1789130065826714600,15.232714599609375,0.16294574737548828,0.0354958176612854,-0.008383750915527344
1789130065842719500,15.248719482421874,-0.012683868408203125,0.006501197814941406,0.23829317092895508
1789130065858724400,15.264724365234375,0.19969940185546875,0.043936312198638916,0.13989591598510742
1789130065874732000,15.28073193359375,0.1151742935180664,-0.14407216012477875,0.12777328491210938
1789130065890734000,15.296734130859376,0.15848731994628906,0.02821400761604309,0.046253204345703125
1789130065906740200,15.312740234375,0.05370521545410156,0.024721622467041016,-0.1269822120666504
1789130065922752500,15.32875244140625,0.13883304595947266,-0.03253704309463501,-0.06760072708129883
1789130065938765300,15.344765380859375,0.12396240234375,0.05045562982559204,0.08164596557617188
1789130065954780200,15.3607802734375,0.03836536407470703,-0.3503892421722412,-0.14444923400878906
1789130065970790100,15.3767900390625,0.07135772705078125,-0.12367913126945496,-0.09572410583496094
1789130065986799000,15.392799072265625,0.04645729064941406,-0.384426087141037,0.1835484504699707
1789130066002809000,15.40880908203125,0.16808509826660156,-0.3860306739807129,-0.2523508071899414
1789130066018813400,15.4248134765625,0.13680648803710938,-0.20944471657276154,0.1443796157836914
1789130066034815500,15.4408154296875,0.35932445526123047,-0.00980301946401596,-0.0095367431640625
1789130066050821600,15.456821533203126,0.5909709930419922,0.05038870871067047,-0.2057514190673828
1789130066066826200,15.472826171875,-0.06662940979003906,0.017627283930778503,0.19426488876342773
1789130066082834000,15.488833984375,0.5056076049804688,-0.1770252287387848,-0.06519699096679688
1789130066098840800,15.5048408203125,0.6066722869873047,0.05412088334560394,0.04731130599975586
1789130066114851000,15.52085107421875,0.5122394561767578,0.014950461685657501,-0.07137203216552734
1789130066130867000,15.536866943359374,0.2595357894897461,-0.2600700259208679,0.10249710083007812
1789130066146881300,15.55288134765625,0.6568756103515625,-0.05169014632701874,0.13953351974487305
1789130066162897700,15.568897705078125,0.3289051055908203,0.12687939405441284,0.11960220336914062
1789130066178911500,15.584911376953125,0.2984304428100586,-0.04901041090488434,-0.09290552139282227
1789130066194928400,15.600928466796875,0.3947410583496094,0.2248452752828598,-0.032965660095214844
1789130066210949600,15.61694970703125,0.2994203567504883,-0.0933045968413353,0.1516284942626953
1789130066226968300,15.63296826171875,0.3670310974121094,-0.11048589646816254,-0.3008279800415039
1789130066242982700,15.648982666015625,0.02637004852294922,0.19809886813163757,0.04377412796020508
1789130066258992600,15.66499267578125,0.49640369415283203,-0.10444486141204834,0.1272878646850586
1789130066275005200,15.681005126953124,0.2237110137939453,0.04698241129517555,-0.0899348258972168
1789130066291022000,15.69702197265625,0.15204334259033203,0.10133197903633118,-0.01966571807861328
1789130066307036000,15.713035888671875,0.10537052154541016,0.20414696633815765,-0.1714797019958496
1789130066323045600,15.729045654296876,0.39504051208496094,-0.050649259239435196,-0.1972494125366211
1789130066339053800,15.7450537109375,0.07325172424316406,-0.07911452651023865,0.00914144515991211
1789130066355061000,15.76106103515625,0.18327713012695312,-0.024856064468622208,-0.1403036117553711
1789130066371073800,15.77707373046875,0.05179405212402344,-0.04299736022949219,-0.027469158172607422
1789130066387084800,15.793084716796875,0.3570518493652344,-0.012428835034370422,-0.30421924591064453
1789130066403097000,15.80909716796875,0.039412498474121094,-0.009301569312810898,-0.17318105697631836
1789130066419105300,15.825105224609375,0.35349273681640625,-0.004478096961975098,0.17876720428466797
1789130066435118000,15.8411181640625,0.1899394989013672,-0.04822780564427376,-0.08909368515014648
1789130066451126300,15.857126220703124,0.30426979064941406,-0.048268869519233704,-0.18482732772827148
1789130066467137800,15.8731376953125,0.22622966766357422,-0.03942044824361801,0.04657459259033203
1789130066483144200,15.889144287109374,0.35901355743408203,-0.05386471375823021,0.00003528594970703125
1789130066499148800,15.905148681640625,0.443450927734375,0.04628843069076538,-0.03605365753173828
1789130066515155000,15.921155029296875,0.09776592254638672,0.16573402285575867,-0.025733470916748047
1789130066531161900,15.937161865234375,0.21211910247802734,-0.055000659078359604,0.007921695709228516
1789130066547173400,15.95317333984375,0.3645801544189453,0.17019662261009216,-0.168731689453125
1789130066563182300,15.969182373046875,0.04556846618652344,0.1395619809627533,0.056980133056640625
1789130066579192300,15.9851923828125,0.1764669418334961,-0.15464834868907928,0.1250462532043457
1789130066595202000,16.0012021484375,0.33991432189941406,-0.17738361656665802,-0.23125171661376953
1789130066611208700,16.017208740234373,0.3914642333984375,0.27296149730682373,-0.17247724533081055
1789130066627214300,16.03321435546875,0.20672321319580078,0.06218493729829788,0.052195072174072266
1789130066643220200,16.04922021484375,0.2913932800292969,0.05283588171005249,-0.0414433479309082
1789130066659228000,16.065227783203124,0.1851968765258789,0.048522256314754486,-0.15543317794799805
1789130066675240200,16.081240234375,-0.12464523315429688,-0.06980624049901962,0.0520167350769043
1789130066691251200,16.097251220703125,0.47113895416259766,0.12399440258741379,0.04761934280395508
1789130066707256300,16.11325634765625,0.21149826049804688,0.07952457666397095,0.05441474914550781
1789130066723264300,16.12926416015625,0.24381065368652344,0.050026893615722656,-0.019940853118896484
1789130066747278800,16.15327880859375,0.20577526092529297,-0.0017603635787963867,-0.0018720626831054688
1789130066763287000,16.169287109375,0.43256664276123047,0.07791391760110855,0.013437271118164062
1789130066779298000,16.185298095703125,0.0382537841796875,-0.010027393698692322,0.06446456909179688
1789130066795306500,16.201306396484377,0.08537101745605469,0.08005596697330475,0.06592035293579102
1789130066811316500,16.21731640625,0.29460620880126953,0.08875994384288788,-0.2473773956298828
1789130066827327700,16.23332763671875,0.26332855224609375,-0.12195567041635513,-0.08937311172485352
1789130066843340000,16.249340087890626,0.0870981216430664,-0.12559710443019867,-0.17794322967529297
1789130066859352000,16.26535205078125,0.2513093948364258,0.04404614120721817,0.01512765884399414
1789130066875361500,16.281361572265624,0.07247161865234375,0.06101817637681961,0.09004354476928711
1789130066891372500,16.29737255859375,0.21968650817871094,-0.01874605566263199,-0.008236885070800781
1789130066907387600,16.3133876953125,0.25719261169433594,-0.11281295120716095,0.1273179054260254
1789130066923402200,16.32940234375,-0.001132965087890625,-0.1398497074842453,0.27046871185302734
1789130066939417300,16.345417236328124,0.10530567169189453,-0.09503719955682755,0.3593583106994629
1789130066955428900,16.361428955078125,0.24642658233642578,-0.07889167964458466,0.24973392486572266
1789130066971430100,16.37743017578125,-0.021615982055664062,-0.022624723613262177,0.41284847259521484
1789130066987438000,16.39343798828125,0.14902019500732422,-0.04169248044490814,0.2736043930053711
1789130067003441700,16.409441650390626,0.07076358795166016,-0.11876001954078674,0.3066225051879883
1789130067019446300,16.4254462890625,0.11815357208251953,0.014694370329380035,0.33757495880126953
1789130067035449900,16.441449951171876,0.1468353271484375,0.009779270738363266,0.3917255401611328
1789130067051457000,16.45745703125,0.040907859802246094,-0.06012319028377533,0.3033280372619629
1789130067067473000,16.473472900390625,0.23100852966308594,-0.061678893864154816,0.34583282470703125
1789130067083487000,16.489487060546875,0.0375823974609375,0.09640052914619446,0.27913618087768555
1789130067099500300,16.505500244140624,-0.025396347045898438,0.015196476131677628,0.44501590728759766
1789130067115512800,16.521512939453125,0.21289730072021484,-0.061494842171669006,0.33396005630493164
1789130067131523600,16.537523681640625,0.08556461334228516,0.06161006912589073,0.20211458206176758
1789130067147534300,16.553534423828125,0.18154335021972656,0.021299466490745544,0.28412675857543945
1789130067163539700,16.569539794921877,0.12747478485107422,0.009126361459493637,0.15836668014526367
1789130067179541000,16.585541015625,0.21551227569580078,0.10778839886188507,0.09762334823608398
1789130067195547000,16.601546875,0.3120689392089844,0.028949253261089325,0.11539030075073242
1789130067211560700,16.617560791015624,0.10655879974365234,0.16960173845291138,0.07642412185668945
1789130067227572700,16.63357275390625,0.2456798553466797,0.07120411843061447,0.08557653427124023
1789130067243584500,16.64958447265625,0.1782550811767578,0.049720458686351776,-0.023830890655517578
1789130067259593000,16.665593017578125,0.1919708251953125,0.1521843671798706,0.0539860725402832
1789130067275600100,16.68160009765625,0.2428598403930664,0.10101043432950974,-0.1247248649597168
1789130067291607300,16.697607177734376,0.3071308135986328,0.03025127202272415,-0.12449216842651367
1789130067307621400,16.713621337890626,0.2020578384399414,0.016862794756889343,-0.1594076156616211
1789130067323636000,16.729635986328127,0.3083839416503906,0.03193704038858414,-0.2827110290527344
1789130067339648800,16.745648681640624,0.3662548065185547,-0.019937239587306976,-0.3195919990539551
1789130067355663400,16.761663330078125,0.20554447174072266,-0.02247750014066696,-0.3027501106262207
1789130067371673000,16.777673095703125,0.30599117279052734,-0.02346263825893402,-0.39650726318359375
1789130067387686000,16.793685791015626,0.3452892303466797,-0.051704104989767075,-0.4207878112792969
1789130067403697400,16.809697509765623,0.2179584503173828,-0.024988599121570587,-0.30756187438964844
1789130067419714000,16.825714111328125,0.36672210693359375,-0.0357012078166008,-0.4732532501220703
1789130067435725800,16.841725830078126,0.4210700988769531,-0.08329305797815323,-0.6654520034790039
1789130067451736300,16.857736328125,0.24025917053222656,-0.1056022122502327,-0.4580869674682617
1789130067467747600,16.87374755859375,0.2633695602416992,-0.05050970986485481,-0.446779727935791
1789130067483758800,16.8897587890625,0.4087848663330078,-0.011124983429908752,-0.6884658336639404
1789130067499766800,16.905766845703123,0.41646575927734375,-0.0728599950671196,-0.6243278980255127
1789130067515776800,16.92177685546875,0.2724037170410156,-0.09887750446796417,-0.533057451248169
1789130067531788500,16.93778857421875,0.2407217025756836,-0.029182109981775284,-0.43077921867370605
1789130067547798300,16.95379833984375,0.22635364532470703,-0.023624036461114883,-0.4198272228240967
1789130067563805400,16.969805419921876,0.35425376892089844,-0.02331833355128765,-0.5960044860839844
1789130067579811300,16.985811279296875,0.2854328155517578,-0.03783522546291351,-0.5256106853485107
1789130067595815200,17.001815185546874,0.17633724212646484,-0.028281215578317642,-0.3406662940979004
1789130067611820000,17.017820068359374,0.1773519515991211,0.003045797348022461,-0.33830714225769043
1789130067627827000,17.033826904296873,0.15210533142089844,0.024065496399998665,-0.3506309986114502
1789130067643836000,17.0498359375,0.1338796615600586,0.011034969240427017,-0.3342123031616211
1789130067659853300,17.065853271484375,0.21639251708984375,0.011472849175333977,-0.4516642093658447
1789130067675867600,17.08186767578125,0.1830768585205078,-0.008137566968798637,-0.4320363998413086
1789130067691875300,17.097875244140624,0.028554916381835938,-0.0043146489188075066,-0.3196747303009033
1789130067707887600,17.1138876953125,0.08753204345703125,0.028258197009563446,-0.30994248390197754
1789130067723892700,17.129892822265624,0.05683422088623047,0.05011748895049095,-0.30809450149536133
1789130067739897600,17.145897705078124,0.06530570983886719,0.047543108463287354,-0.29866600036621094
1789130067755900000,17.16189990234375,0.050734519958496094,0.00696750171482563,-0.281829833984375
1789130067771905500,17.177905517578125,0.02283477783203125,0.023938365280628204,-0.3011019229888916
1789130067787915000,17.1939150390625,-0.004826545715332031,0.031093057245016098,-0.32083940505981445
1789130067803926000,17.209926025390626,0.0116119384765625,0.023961305618286133,-0.256986141204834
1789130067819944000,17.22594384765625,-0.0291900634765625,0.05543956533074379,-0.29415464401245117
1789130067835956500,17.24195654296875,0.01131439208984375,0.043327394872903824,-0.3356966972351074
1789130067851968000,17.257968017578126,0.0038433074951171875,-0.006533566862344742,-0.2954275608062744
1789130067867984100,17.273984130859375,-0.012475013732910156,0.011527065187692642,-0.2570984363555908
1789130067884001800,17.290001708984374,-0.037105560302734375,-0.0036246217787265778,-0.18875694274902344
1789130067900018000,17.306017822265623,-0.0033426284790039062,0.005433131009340286,-0.18526554107666016
1789130067916031200,17.32203125,0.016531944274902344,-0.023707404732704163,-0.18309712409973145
1789130067932044300,17.338044189453125,0.03171539306640625,-0.014034589752554893,-0.15244364738464355
1789130067948047000,17.354047119140624,0.04235363006591797,-0.023168403655290604,-0.1655442714691162
1789130067964058400,17.370058349609376,0.09997177124023438,-0.04122771695256233,-0.2382194995880127
1789130067980063500,17.3860634765625,0.10902690887451172,-0.029787162318825722,-0.2370131015777588
1789130067996075000,17.402074951171876,0.18773651123046875,-0.037033628672361374,-0.32984328269958496
1789130068012088600,17.418088623046874,0.16823101043701172,-0.043283917009830475,-0.3625037670135498
1789130068028101400,17.434101318359374,0.160797119140625,-0.029668211936950684,-0.42140817642211914
1789130068044106000,17.45010595703125,0.17456817626953125,-0.03021247684955597,-0.4761524200439453
1789130068060108300,17.4661083984375,0.13494491577148438,-0.04938114061951637,-0.42728734016418457
1789130068076115200,17.482115234375,0.11549091339111328,-0.054535381495952606,-0.38554906845092773
1789130068092119300,17.498119384765626,0.09702873229980469,-0.017500586807727814,-0.35578250885009766
1789130068108121900,17.514121826171873,0.08896923065185547,0.004337737336754799,-0.3806629180908203
1789130068124121900,17.530121826171875,0.04838085174560547,-0.00797192845493555,-0.3363480567932129
1789130068140117800,17.54611767578125,0.052336692810058594,-0.0017412174493074417,-0.301135778427124
1789130068156122400,17.562122314453124,0.062241554260253906,0.004167349077761173,-0.2646505832672119
1789130068172131300,17.57813134765625,0.01642322540283203,0.014300108887255192,-0.21466684341430664
1789130068188139800,17.594139892578124,0.019881248474121094,0.01459865365177393,-0.18846511840820312
1789130068204149500,17.6101494140625,0.010207176208496094,0.005035509821027517,-0.1616525650024414
1789130068220155600,17.62615576171875,-0.036647796630859375,0.00008497480303049088,-0.11479043960571289
1789130068236163000,17.6421630859375,-0.03924274444580078,0.004663900006562471,-0.08638191223144531
1789130068252167400,17.65816748046875,-0.08878517150878906,-0.0002313246950507164,-0.05171847343444824
1789130068268171000,17.6741708984375,-0.0752859115600586,0.004612900782376528,-0.03425168991088867
1789130068284176400,17.69017626953125,-0.08043956756591797,0.019015446305274963,-0.004209756851196289
1789130068300183800,17.706183837890624,-0.03740882873535156,0.00944280531257391,-0.013553619384765625
1789130068316186000,17.72218603515625,-0.06609821319580078,0.004929857794195414,0.015027999877929688
1789130068332189700,17.738189697265625,-0.037240028381347656,0.005105725955218077,0.043300628662109375
1789130068348193800,17.75419384765625,-0.027482986450195312,0.01965118758380413,0.03786802291870117
1789130068364201200,17.770201171875,0.015752792358398438,0.0007185237482190132,0.03736090660095215
1789130068380199400,17.786199462890625,0.05892753601074219,0.005376651417464018,0.03229260444641113
1789130068396198100,17.8021982421875,0.06370067596435547,0.00562733830884099,0.03713417053222656
1789130068412200000,17.818199951171874,0.020667076110839844,0.015216931700706482,0.04648900032043457
1789130068428202200,17.8342021484375,0.039806365966796875,0.005785597488284111,0.03217482566833496
1789130068444206000,17.8502060546875,0.0062847137451171875,-0.0034798779524862766,0.046547651290893555
1789130068460210000,17.8662099609375,0.011036872863769531,0.015907032415270805,0.022737741470336914
1789130068476217000,17.882217041015625,-0.0320587158203125,0.011388605460524559,0.022737741470336914
1789130068492225000,17.89822509765625,-0.03211784362792969,-0.007436360698193312,-0.005780935287475586
1789130068508228400,17.914228271484376,-0.051239013671875,0.0168598759919405,-0.025051593780517578
1789130068524233200,17.930233154296875,-0.07046985626220703,-0.002027925569564104,-0.0439302921295166
1789130068540237300,17.9462373046875,-0.06094551086425781,0.0029280162416398525,-0.0581052303314209
1789130068556247300,17.962247314453126,-0.06578540802001953,-0.0016664719441905618,-0.08186483383178711
1789130068572248600,17.97824853515625,-0.06104755401611328,0.003406301373615861,-0.08647274971008301
1789130068588249300,17.994249267578127,-0.05175590515136719,-0.010721885599195957,-0.10460019111633301
1789130068604247800,18.010247802734376,-0.037654876708984375,-0.01541669201105833,-0.07971572875976562
1789130068620247300,18.026247314453126,0.0050983428955078125,-0.000820376502815634,-0.0641181468963623
1789130068636251100,18.042251220703125,0.004856109619140625,0.008870192803442478,-0.06803607940673828
1789130068652251400,18.05825146484375,0.042893409729003906,0.00899199303239584,-0.028760671615600586
1789130068668258300,18.07425830078125,0.042613983154296875,0.009103124961256981,-0.008603811264038086
1789130068684267300,18.090267333984375,0.032904624938964844,0.009062427096068859,0.0062367916107177734
1789130068700269300,18.106269287109374,0.02330303192138672,-0.00028458909946493804,0.04463529586791992
1789130068716274200,18.122274169921877,0.02810382843017578,0.023707769811153412,0.049381256103515625
1789130068740283000,18.146282958984376,-0.010150909423828125,0.019149448722600937,0.0396115779876709
1789130068756286700,18.16228662109375,-0.010043144226074219,0.01453910581767559,0.05359387397766113
1789130068772294000,18.1782939453125,-0.03857707977294922,0.019295943900942802,0.03373241424560547
1789130068788300500,18.194300537109374,-0.03843402862548828,0.024184446781873703,0.02364325523376465
1789130068804311600,18.2103115234375,-0.07174968719482422,0.019400501623749733,0.013335227966308594
1789130068820319700,18.22631982421875,-0.0620880126953125,0.00981046911329031,0.008242130279541016
1789130068836330500,18.24233056640625,-0.038055419921875,0.005013225134462118,-0.0016605854034423828
1789130068852337200,18.258337158203126,-0.05235481262207031,0.009752674959599972,-0.016260623931884766
1789130068868343000,18.274343017578126,-0.03798961639404297,-0.009459098801016808,-0.0354151725769043
1789130068884345000,18.290344970703124,-0.03795146942138672,0.005013736430555582,-0.021188020706176758
1789130068900352800,18.306352783203124,-0.014054298400878906,0.0005733428988605738,-0.05454826354980469
1789130068916358700,18.322358642578124,0.0049800872802734375,-0.004034297075122595,-0.04932594299316406
1789130068932366300,18.338366455078123,0.028911590576171875,0.010638955980539322,-0.05408048629760742
1789130068948371500,18.354371337890626,0.019189834594726562,0.006069602444767952,-0.058344364166259766
1789130068964379000,18.37037890625,0.03816699981689453,0.0016200024401769042,-0.05292367935180664
1789130068980388000,18.38638818359375,0.009264945983886719,-0.0029576076194643974,-0.03315281867980957
1789130068996391400,18.402391357421877,0.009092330932617188,0.0020007453858852386,-0.061263084411621094
1789130069012396000,18.41839599609375,0.0089111328125,-0.0072502633556723595,-0.03188204765319824
1789130069028398300,18.4343984375,-0.015051841735839844,0.0022694063372910023,-0.03180575370788574
1789130069044403200,18.4504033203125,-0.005466461181640625,-0.007071618922054768,-0.0031054019927978516
1789130069060414700,18.466414794921874,-0.000682830810546875,0.007556626107543707,0.0064868927001953125
1789130069076426500,18.482426513671875,-0.03440380096435547,0.0030348377767950296,0.012004613876342773
1789130069092432100,18.49843212890625,-0.0057525634765625,0.008227802813053131,0.017076969146728516
1789130069108437000,18.51443701171875,-0.04400444030761719,0.017991438508033752,0.02645730972290039
1789130069124443400,18.530443359375,-0.020038604736328125,0.018134061247110367,0.007215738296508789
1789130069140448300,18.5464482421875,-0.03912544250488281,0.00379734649322927,0.026128530502319336
1789130069156454700,18.56245458984375,-0.03422355651855469,0.02778809703886509,0.0065686702728271484
1789130069172460000,18.5784599609375,-0.02454853057861328,0.013279972597956657,0.03494620323181152
1789130069188460000,18.5944599609375,-0.014836311340332031,0.03233429044485092,0.005731105804443359
1789130069204462300,18.61046240234375,0.004408836364746094,0.027366437017917633,0.005398988723754883
1789130069220466400,18.626466552734374,-0.005221366882324219,0.027351751923561096,-0.027930736541748047
1789130069236465400,18.64246533203125,-0.010058403015136719,0.027377471327781677,-0.022966384887695312
1789130069252465200,18.658465087890626,0.01862335205078125,0.02748078480362892,-0.03715395927429199
1789130069268468700,18.67446875,0.004240989685058594,0.0181198138743639,-0.027516603469848633
1789130069284470300,18.69047021484375,0.013735771179199219,0.02765701711177826,-0.05116391181945801
1789130069300474000,18.70647412109375,-0.019881248474121094,0.03740443289279938,-0.03644514083862305
1789130069316478200,18.722478271484373,-0.0008630752563476562,0.027710136026144028,-0.03595733642578125
1789130069332476700,18.7384765625,-0.020147323608398438,0.022707726806402206,-0.035486698150634766
1789130069348481300,18.754481201171874,-0.010659217834472656,0.017971709370613098,-0.025591135025024414
1789130069364491300,18.7704912109375,-0.015565872192382812,0.022739363834261894,-0.02037835121154785
1789130069380501800,18.786501708984375,-0.02047252655029297,0.017740385606884956,-0.005587339401245117
1789130069396512500,18.802512451171875,-0.02052593231201172,0.022457916289567947,-0.0006070137023925781
1789130069412517600,18.818517578125,-0.04445362091064453,0.017631152644753456,0.008918046951293945
1789130069428532000,18.834531982421876,-0.034821510314941406,0.017566636204719543,0.023084640502929688
1789130069444544300,18.850544189453124,-0.03000926971435547,0.012768588960170746,0.027788400650024414
1789130069460554000,18.866553955078125,-0.01555633544921875,0.017628377303481102,0.02747058868408203
1789130069476567000,18.882567138671874,-0.015570640563964844,0.027191007509827614,0.03231072425842285
1789130069492585500,18.89858544921875,-0.020235061645507812,0.007990634068846703,0.027076005935668945
1789130069508602600,18.9146025390625,-0.020191192626953125,0.0029614802915602922,0.0077631473541259766
1789130069524620000,18.9306201171875,-0.020101547241210938,0.012455358169972897,0.01702141761779785
1789130069540631800,18.9466318359375,-0.0057220458984375,0.0027491527143865824,0.002603769302368164
1789130069556641300,18.962641357421877,-0.015328407287597656,0.012459230609238148,-0.0020775794982910156
1789130069572650000,18.97864990234375,-0.005787849426269531,0.0028585311956703663,-0.006737232208251953
1789130069588661800,18.994661865234374,-0.005827903747558594,0.012454262003302574,-0.011381387710571289
1789130069604673000,19.010673095703126,-0.024974822998046875,0.012464783154428005,-0.011405706405639648
1789130069620686800,19.026686767578123,-0.025008201599121094,0.01741049624979496,-0.025653600692749023
1789130069636698600,19.04269873046875,-0.03462409973144531,0.02222052589058876,-0.011144638061523438
1789130069652714000,19.0587138671875,-0.029916763305664062,0.0172922033816576,-0.030007123947143555
1789130069668726000,19.07472607421875,-0.03961658477783203,0.017127368599176407,-0.019989728927612305
1789130069684739300,19.0907392578125,-0.025313377380371094,0.01216521579772234,-0.01976466178894043
1789130069700750000,19.10675,-0.03969001770019531,0.01665777713060379,-0.005356788635253906
1789130069716763400,19.122763427734377,-0.025358200073242188,0.016450053080916405,-0.010025739669799805
1789130069732777200,19.138777099609374,-0.039750099182128906,0.01150602102279663,-0.0051422119140625
1789130069748783900,19.154783935546874,-0.025396347045898438,0.021020211279392242,-0.00031185150146484375
1789130069764790300,19.170790283203125,-0.035019874572753906,0.016208354383707047,0.009429216384887695
1789130069780800300,19.18680029296875,-0.01588726043701172,0.006558920256793499,0.0047206878662109375
1789130069796811000,19.20281103515625,-0.02062702178955078,0.02081160992383957,0.0045473575592041016
1789130069812821200,19.2188212890625,-0.0014314651489257812,0.02049596793949604,0.009181737899780273
1789130069828825600,19.23482568359375,-0.01567363739013672,0.006266074720770121,0.018313169479370117
1789130069844836000,19.250836181640626,0.013048171997070312,0.01584719307720661,0.013557195663452148
1789130069860845600,19.266845458984374,-0.006056785583496094,0.0013511223951354623,0.013381481170654297
1789130069876859400,19.282859375,-0.015598297119140625,0.0012665127869695425,0.008467435836791992
1789130069892871400,19.298871337890624,-0.03958320617675781,-0.008231895044445992,0.0038330554962158203
1789130069908884700,19.314884765625,-0.006092071533203125,0.006143398117274046,-0.020006895065307617
1789130069924900000,19.330900146484375,-0.006134033203125,0.0013420622562989593,-0.005495548248291016
1789130069940915700,19.346915771484376,-0.025300979614257812,0.006199000868946314,-0.02459716796875
1789130069956926200,19.36292626953125,-0.0347442626953125,0.015752865001559258,-0.02507948875427246
1789130069972932600,19.3789326171875,-0.029878616333007812,0.011229688301682472,-0.02056598663330078
1789130069988938000,19.39493798828125,-0.029938697814941406,0.006218947470188141,-0.029927492141723633
1789130070004950300,19.4109501953125,-0.02994823455810547,-0.003362023737281561,-0.044260501861572266
1789130070020963800,19.4269638671875,-0.03951740264892578,0.0062941317446529865,-0.02034759521484375
1789130070036982300,19.442982177734375,-0.034781455993652344,0.006432006135582924,-0.01536703109741211
1789130070052999000,19.4589990234375,-0.02523040771484375,-0.007800517603754997,-0.010485172271728516
1789130070069011000,19.475010986328126,-0.001232147216796875,0.0019056875025853515,-0.034629106521606445
1789130070085027600,19.491027587890624,-0.005965232849121094,0.0067114802077412605,0.003476858139038086
1789130070101044200,19.507044189453126,0.0131378173828125,0.0019484306685626507,-0.010707378387451172
1789130070117053000,19.523052978515626,-0.006070137023925781,0.0066136461682617664,0.008644819259643555
1789130070133058300,19.539058349609373,0.008297920227050781,0.0018733927281573415,-0.005734920501708984
1789130070149068000,19.555068115234373,-0.0012273788452148438,0.001718056038953364,0.027601957321166992
1789130070165070600,19.571070556640624,0.0130615234375,0.011281564831733704,0.013509750366210938
1789130070181076000,19.587075927734375,-0.02520751953125,0.0161057710647583,0.018160343170166016
1789130070197084200,19.603084228515623,-0.0060787200927734375,0.0015802549896761775,0.008675336837768555
1789130070213091300,19.61909130859375,-0.030038833618164062,0.0016379033913835883,0.013526439666748047
1789130070229096700,19.6350966796875,-0.025211334228515625,0.03004574030637741,-0.000978231430053711
1789130070245110300,19.6511103515625,-0.02040386199951172,0.03008994460105896,0.01331782341003418
1789130070261122000,19.6671220703125,-0.03943061828613281,0.024979980662465096,-0.011080741882324219
1789130070285136400,19.691136474609376,-0.03461647033691406,0.024844225496053696,-0.015964269638061523
1789130070301142500,19.707142578125,-0.04897880554199219,0.010447160340845585,-0.01597309112548828
1789130070317149400,19.7231494140625,-0.015499114990234375,0.014883534982800484,-0.030199766159057617
1789130070333159000,19.739158935546875,0.0036487579345703125,0.014756474643945694,-0.025388717651367188
1789130070349161500,19.755161376953126,-0.0059909820556640625,0.019456323236227036,-0.006010532379150391
1789130070365169200,19.771169189453126,0.0034837722778320312,0.009890767745673656,-0.020003795623779297
1789130070381182000,19.787181884765626,0.003459930419921875,0.01928783394396305,-0.01034235954284668
1789130070397193000,19.80319287109375,0.013007164001464844,0.014469985850155354,-0.005448579788208008
1789130070413206500,19.81920654296875,-0.006134033203125,-0.009333864785730839,-0.04380011558532715
1789130070429217300,19.83521728515625,-0.010988235473632812,-0.009392536245286465,-0.014833688735961914
1789130070445234400,19.851234375,-0.0062046051025390625,-0.004681362770497799,-0.019603967666625977
