time,seconds_elapsed,z,y,x
1791048995365133800,0.0371337890625,-0.284942626953125,-0.9815673828125,0.001739501953125
1791048995375092700,0.0470927734375,-0.2958526611328125,-0.973602294921875,-0.0241546630859375
1791048995385051000,0.05705078125,-0.28912353515625,-0.9589080810546875,-0.032623291015625
1791048995395008800,0.0670087890625,-0.3008880615234375,-0.9416351318359375,-0.0089263916015625
1791048995404967700,0.0769677734375,-0.2943267822265625,-0.9671783447265625,-0.0052642822265625
1791048995414925600,0.086925537109375,-0.286285400390625,-0.97625732421875,-0.017578125
1791048995424883700,0.0968837890625,-0.2780303955078125,-0.9592132568359375,-0.034576416015625
1791048995434841600,0.106841552734375,-0.3030853271484375,-0.9376068115234375,-0.00738525390625
1791048995444800500,0.116800537109375,-0.3050994873046875,-0.9722900390625,-0.006011962890625
1791048995454758700,0.126758544921875,-0.280303955078125,-0.978546142578125,-0.0243072509765625
1791048995464716800,0.136716796875,-0.2766265869140625,-0.9509735107421875,-0.0371856689453125
1791048995474674700,0.1466748046875,-0.30035400390625,-0.941864013671875,0.0010986328125
1791048995484633600,0.156633544921875,-0.3096923828125,-0.985076904296875,-0.0270538330078125
1791048995494591700,0.166591796875,-0.2799072265625,-0.96990966796875,-0.014984130859375
1791048995504549600,0.176549560546875,-0.2800445556640625,-0.947509765625,-0.0445556640625
1791048995514508800,0.1865087890625,-0.3071746826171875,-0.950103759765625,0.0072021484375
1791048995524466700,0.196466796875,-0.3061065673828125,-0.9868011474609375,-0.0333404541015625
1791048995534424800,0.2064248046875,-0.279296875,-0.9637451171875,-0.0218353271484375
1791048995544382500,0.216382568359375,-0.2873687744140625,-0.9435577392578125,-0.0379638671875
1791048995554342000,0.226341796875,-0.31085205078125,-0.9600372314453125,0.002044677734375
1791048995564299500,0.236299560546875,-0.30767822265625,-0.9642333984375,-0.028045654296875
1791048995574257700,0.246257568359375,-0.273345947265625,-0.9527740478515625,-0.0435333251953125
1791048995584216600,0.256216552734375,-0.293914794921875,-0.957611083984375,-0.0289764404296875
1791048995594174700,0.2661748046875,-0.2857666015625,-0.97711181640625,0.0040130615234375
1791048995604132600,0.276132568359375,-0.2637176513671875,-1.017181396484375,-0.0307464599609375
1791048995614090800,0.2860908203125,-0.224212646484375,-0.998748779296875,-0.0255279541015625
1791048995624049700,0.296049560546875,-0.256927490234375,-0.978515625,-0.014434814453125
1791048995634007800,0.3060078125,-0.2685546875,-0.991943359375,0.0009765625
1791048995643965700,0.315965576171875,-0.262786865234375,-0.986663818359375,-0.028594970703125
1791048995653924600,0.325924560546875,-0.2485809326171875,-0.9683990478515625,-0.0345306396484375
1791048995663882800,0.3358828125,-0.2703857421875,-0.9570465087890625,-0.020965576171875
1791048995673840600,0.345840576171875,-0.2823638916015625,-0.9933624267578125,-0.0056915283203125
1791048995683798800,0.355798828125,-0.2542572021484375,-0.99981689453125,-0.0192108154296875
1791048995693757700,0.3657578125,-0.2369842529296875,-0.9799957275390625,-0.0369415283203125
1791048995703715800,0.3757158203125,-0.2723846435546875,-0.9394989013671875,-0.002655029296875
1791048995713673500,0.385673583984375,-0.290283203125,-0.9685821533203125,-0.0141448974609375
1791048995723632600,0.395632568359375,-0.2516326904296875,-0.9653167724609375,-0.028289794921875
1791048995733590500,0.405590576171875,-0.24249267578125,-0.9691009521484375,-0.0332489013671875
1791048995743548700,0.415548583984375,-0.2653350830078125,-0.9389190673828125,0.0083770751953125
1791048995753506600,0.425506591796875,-0.2977447509765625,-0.9937591552734375,-0.031494140625
1791048995763465700,0.4354658203125,-0.2587432861328125,-0.978271484375,-0.02191162109375
1791048995773423600,0.445423583984375,-0.2311553955078125,-0.9546966552734375,-0.028717041015625
1791048995783381800,0.4553818359375,-0.260955810546875,-0.9720306396484375,0.0001678466796875
1791048995793340700,0.465340576171875,-0.273956298828125,-0.978515625,-0.0265350341796875
1791048995803298800,0.475298828125,-0.2451171875,-0.9710845947265625,-0.0325927734375
1791048995813256700,0.485256591796875,-0.2263031005859375,-0.94866943359375,-0.0174713134765625
1791048995823215600,0.495215576171875,-0.2526397705078125,-0.9789581298828125,-0.0046539306640625
1791048995833173800,0.505173828125,-0.25213623046875,-0.9859466552734375,-0.032623291015625
1791048995843132000,0.5151318359375,-0.2343597412109375,-0.9676055908203125,-0.0332489013671875
1791048995853089500,0.525089599609375,-0.2452392578125,-0.9494171142578125,-0.024017333984375
1791048995863048700,0.535048583984375,-0.268829345703125,-0.99237060546875,-0.0085296630859375
1791048995873006600,0.545006591796875,-0.2503509521484375,-0.978424072265625,-0.022491455078125
1791048995882964700,0.55496484375,-0.2332000732421875,-0.967926025390625,-0.0386962890625
1791048995892923600,0.564923583984375,-0.2626953125,-0.938629150390625,-0.0066070556640625
1791048995902881500,0.574881591796875,-0.2748870849609375,-0.98663330078125,-0.0196990966796875
1791048995912839700,0.584839599609375,-0.24652099609375,-0.9807281494140625,-0.0257568359375
1791048995922797600,0.594797607421875,-0.2378997802734375,-0.9572906494140625,-0.0325469970703125
1791048995932756700,0.6047568359375,-0.2747802734375,-0.96099853515625,-0.002349853515625
1791048995942714600,0.614714599609375,-0.2901611328125,-0.9931182861328125,-0.025360107421875
1791048995952672800,0.6246728515625,-0.24822998046875,-0.98291015625,-0.02764892578125
1791048995962631700,0.634631591796875,-0.2433013916015625,-0.9567718505859375,-0.026153564453125
1791048995972589800,0.64458984375,-0.2795257568359375,-0.9629058837890625,-0.0034942626953125
1791048995982547700,0.654547607421875,-0.2862701416015625,-0.988006591796875,-0.03033447265625
1791048995992506600,0.664506591796875,-0.2471160888671875,-0.9799652099609375,-0.025238037109375
1791048996002464800,0.67446484375,-0.243072509765625,-0.9446868896484375,-0.0278167724609375
1791048996012423000,0.6844228515625,-0.2826385498046875,-0.9813995361328125,-0.0038299560546875
1791048996022380500,0.694380615234375,-0.277618408203125,-1.0001373291015625,-0.0284423828125
1791048996032339500,0.70433935546875,-0.24163818359375,-0.9806976318359375,-0.0358734130859375
1791048996042297600,0.714297607421875,-0.2493438720703125,-0.9447479248046875,-0.0067138671875
1791048996052255700,0.724255859375,-0.28631591796875,-0.9860076904296875,-0.015869140625
1791048996062214700,0.734214599609375,-0.27392578125,-0.9964141845703125,-0.024749755859375
1791048996072172500,0.744172607421875,-0.2316741943359375,-0.9627685546875,-0.032012939453125
1791048996082130700,0.754130615234375,-0.2644500732421875,-0.9492034912109375,-0.001190185546875
1791048996092089600,0.764089599609375,-0.2910919189453125,-0.989349365234375,-0.012908935546875
1791048996102047700,0.7740478515625,-0.269012451171875,-0.98114013671875,-0.0304412841796875
1791048996112005600,0.784005615234375,-0.244964599609375,-0.9613800048828125,-0.01751708984375
1791048996121963800,0.7939638671875,-0.2690582275390625,-0.9666748046875,-0.002838134765625
1791048996131922700,0.803922607421875,-0.2870025634765625,-0.9851837158203125,-0.017822265625
1791048996141880800,0.813880859375,-0.257293701171875,-0.9700469970703125,-0.028045654296875
1791048996151838700,0.823838623046875,-0.24908447265625,-0.94903564453125,-0.021453857421875
1791048996161798000,0.8337978515625,-0.274688720703125,-0.96575927734375,0.00201416015625
1791048996171755800,0.843755859375,-0.2806854248046875,-0.9817047119140625,-0.02301025390625
1791048996181713700,0.853713623046875,-0.252532958984375,-0.96307373046875,-0.0291900634765625
1791048996191672800,0.8636728515625,-0.2580413818359375,-0.9464874267578125,-0.0111236572265625
1791048996201630700,0.873630615234375,-0.282196044921875,-0.9815673828125,-0.004180908203125
1791048996211588600,0.883588623046875,-0.26910400390625,-0.973358154296875,-0.021697998046875
1791048996221546800,0.893546630859375,-0.2534942626953125,-0.9629058837890625,-0.0357513427734375
1791048996231505700,0.903505615234375,-0.2587890625,-0.956085205078125,0.0009002685546875
1791048996241463600,0.913463623046875,-0.274658203125,-0.9852142333984375,-0.0120697021484375
1791048996251421700,0.923421630859375,-0.2581329345703125,-0.98095703125,-0.0230560302734375
1791048996261381400,0.93338134765625,-0.2472991943359375,-0.9606475830078125,-0.0305328369140625
1791048996271339300,0.94333935546875,-0.2633056640625,-0.966949462890625,0.00091552734375
1791048996281297200,0.953297119140625,-0.2662811279296875,-0.99462890625,-0.017059326171875
1791048996291256000,0.963256103515625,-0.2404937744140625,-0.9968719482421875,-0.0302734375
1791048996301214200,0.973214111328125,-0.2352447509765625,-0.95904541015625,-0.002685546875
1791048996311172400,0.98317236328125,-0.2646942138671875,-0.9838409423828125,-0.0144805908203125
1791048996321131300,0.99313134765625,-0.2633209228515625,-1.0008087158203125,-0.01513671875
1791048996331089200,1.003089111328125,-0.2272491455078125,-0.9871063232421875,-0.0269927978515625
1791048996341047300,1.01304736328125,-0.2252655029296875,-0.9608001708984375,0.0015106201171875
1791048996351005400,1.02300537109375,-0.26470947265625,-0.9850311279296875,-0.024444580078125
1791048996360964400,1.03296435546875,-0.2526702880859375,-1.0048980712890625,-0.0187530517578125
1791048996370922200,1.042922119140625,-0.2140350341796875,-0.9711151123046875,-0.00872802734375
1791048996380880400,1.05288037109375,-0.2202911376953125,-0.980133056640625,-0.02008056640625
1791048996390839300,1.06283935546875,-0.258453369140625,-1.012481689453125,-0.011749267578125
1791048996400797400,1.07279736328125,-0.2313385009765625,-0.972381591796875,-0.0243682861328125
1791048996410755000,1.082755126953125,-0.215850830078125,-0.980224609375,-0.00933837890625
1791048996420714500,1.092714599609375,-0.226806640625,-1.002716064453125,-0.0109405517578125
1791048996430672100,1.102672119140625,-0.2321929931640625,-0.997100830078125,-0.0317535400390625
1791048996440630300,1.11263037109375,-0.219207763671875,-0.980377197265625,-0.003662109375
1791048996450589200,1.122589111328125,-0.219024658203125,-0.9960174560546875,-0.01763916015625
1791048996460547300,1.13254736328125,-0.2126922607421875,-1.0064697265625,-0.0234527587890625
1791048996470505200,1.142505126953125,-0.220672607421875,-0.9819183349609375,-0.01220703125
1791048996480463400,1.15246337890625,-0.22314453125,-0.99444580078125,-0.01885986328125
1791048996490422300,1.16242236328125,-0.206634521484375,-0.996185302734375,-0.0118408203125
1791048996500380200,1.172380126953125,-0.207427978515625,-0.98577880859375,-0.0302581787109375
1791048996510338300,1.18233837890625,-0.224365234375,-0.9958953857421875,-0.0053253173828125
1791048996520297200,1.192297119140625,-0.210205078125,-0.9981842041015625,-0.01849365234375
1791048996530255400,1.20225537109375,-0.2058258056640625,-0.9835052490234375,-0.021087646484375
1791048996540213200,1.212213134765625,-0.2062225341796875,-0.9951629638671875,-0.000823974609375
1791048996550172400,1.22217236328125,-0.2136993408203125,-1.00628662109375,-0.0239105224609375
1791048996560130300,1.23213037109375,-0.203460693359375,-0.9845428466796875,-0.009521484375
1791048996570088400,1.24208837890625,-0.1962738037109375,-0.98321533203125,-0.0036468505859375
1791048996580047400,1.25204736328125,-0.214263916015625,-1.0094146728515625,-0.0400390625
1791048996590005200,1.262005126953125,-0.192352294921875,-0.99127197265625,0.00225830078125
1791048996599963100,1.271963134765625,-0.18499755859375,-0.9799957275390625,-0.01397705078125
1791048996609921300,1.28192138671875,-0.203033447265625,-1.00360107421875,-0.0339508056640625
1791048996619880200,1.291880126953125,-0.1871490478515625,-0.9942169189453125,0.0001983642578125
1791048996629838300,1.30183837890625,-0.185760498046875,-0.9883880615234375,-0.0171356201171875
1791048996639796200,1.311796142578125,-0.18804931640625,-1.0014190673828125,-0.01947021484375
1791048996649755100,1.321755126953125,-0.179595947265625,-0.9828033447265625,-0.0048980712890625
1791048996659713300,1.33171337890625,-0.200469970703125,-1.0020751953125,-0.027923583984375
1791048996669671400,1.34167138671875,-0.1724090576171875,-0.9806365966796875,-0.00457763671875
1791048996679630300,1.35163037109375,-0.1890106201171875,-0.987213134765625,-0.0137481689453125
1791048996689588200,1.361588134765625,-0.188018798828125,-1.0149993896484375,-0.0240478515625
1791048996699546400,1.37154638671875,-0.1710205078125,-0.9847869873046875,-0.0042877197265625
1791048996709505300,1.38150537109375,-0.1949005126953125,-0.9916229248046875,-0.0222930908203125
1791048996719463400,1.39146337890625,-0.193267822265625,-0.9882354736328125,-0.0068511962890625
1791048996729421300,1.40142138671875,-0.1820220947265625,-0.9831085205078125,-0.0115203857421875
1791048996739380500,1.41138037109375,-0.1866302490234375,-0.9964599609375,-0.030487060546875
1791048996749338400,1.42133837890625,-0.1688232421875,-0.9766693115234375,0.00567626953125
1791048996759296300,1.431296142578125,-0.201080322265625,-0.9975433349609375,-0.0288848876953125
1791048996769255200,1.441255126953125,-0.1782073974609375,-0.9983978271484375,-0.00469970703125
1791048996779213300,1.45121337890625,-0.167938232421875,-0.9756927490234375,-0.003143310546875
1791048996789171200,1.461171142578125,-0.1919708251953125,-1.0149688720703125,-0.0439605712890625
1791048996799129300,1.47112939453125,-0.1617889404296875,-0.9881591796875,0.0139007568359375
1791048996809088300,1.481088134765625,-0.1785125732421875,-0.9972076416015625,-0.0320892333984375
1791048996819046100,1.491046142578125,-0.1670379638671875,-1.006500244140625,-0.0045318603515625
1791048996829004300,1.50100439453125,-0.1575164794921875,-0.988494873046875,-0.0088958740234375
1791048996838963200,1.510963134765625,-0.183135986328125,-1.021759033203125,-0.0268096923828125
1791048996848921300,1.52092138671875,-0.148193359375,-0.98492431640625,0.00634765625
1791048996858879200,1.530879150390625,-0.1930999755859375,-0.9965057373046875,-0.03155517578125
1791048996868838400,1.54083837890625,-0.16290283203125,-1.0125274658203125,0.000091552734375
1791048996878796300,1.55079638671875,-0.161285400390625,-0.991546630859375,-0.0125885009765625
1791048996888754400,1.56075439453125,-0.1739349365234375,-1.0123748779296875,-0.02294921875
1791048996898713300,1.57071337890625,-0.15081787109375,-0.9960784912109375,-0.0012664794921875
1791048996908671500,1.58067138671875,-0.1913299560546875,-1.0053863525390625,-0.035552978515625
1791048996918629000,1.590629150390625,-0.14495849609375,-1.001190185546875,0.01422119140625
1791048996928588000,1.600588134765625,-0.166900634765625,-1.0020751953125,-0.0233001708984375
1791048996938546200,1.610546142578125,-0.160675048828125,-1.0160369873046875,0.001434326171875
1791048996948504300,1.62050439453125,-0.1571197509765625,-0.9986419677734375,-0.0054473876953125
1791048996958463200,1.630463134765625,-0.181304931640625,-1.0053863525390625,-0.024688720703125
1791048996968421000,1.640421142578125,-0.1464385986328125,-0.9970550537109375,0.013641357421875
1791048996978379300,1.650379150390625,-0.1791534423828125,-1.0093994140625,-0.0311279296875
1791048996988338200,1.660338134765625,-0.1429595947265625,-1.0045166015625,0.012939453125
1791048996998296300,1.67029638671875,-0.160186767578125,-1.0078887939453125,-0.0230712890625
1791048997008254200,1.680254150390625,-0.16680908203125,-1.00628662109375,0.0001068115234375
1791048997018213400,1.69021337890625,-0.1503448486328125,-1.0031890869140625,-0.003662109375
1791048997028171300,1.700171142578125,-0.1797332763671875,-1.01446533203125,-0.0229644775390625
1791048997038129400,1.71012939453125,-0.1358489990234375,-0.9925079345703125,0.013519287109375
1791048997048087300,1.72008740234375,-0.189971923828125,-1.0149688720703125,-0.027008056640625
1791048997058046500,1.73004638671875,-0.1459197998046875,-0.9997711181640625,0.0165863037109375
1791048997068004400,1.74000439453125,-0.1692047119140625,-1.00921630859375,-0.0261993408203125
1791048997077962200,1.749962158203125,-0.1557159423828125,-1.0188751220703125,-0.0015716552734375
1791048997087921400,1.75992138671875,-0.1534423828125,-0.9991455078125,-0.0046844482421875
1791048997097879300,1.76987939453125,-0.179779052734375,-1.0118408203125,-0.021484375
1791048997107837200,1.779837158203125,-0.1444549560546875,-0.994293212890625,0.019134521484375
1791048997117796000,1.789796142578125,-0.1811676025390625,-1.0187835693359375,-0.0349273681640625
1791048997127754200,1.799754150390625,-0.1372528076171875,-1.00946044921875,0.0172119140625
1791048997137712000,1.809712158203125,-0.1683349609375,-1.007110595703125,-0.032989501953125
1791048997147671300,1.81967138671875,-0.153961181640625,-1.0101470947265625,0.0025482177734375
1791048997157629200,1.829629150390625,-0.1577911376953125,-0.998565673828125,-0.01416015625
1791048997167587300,1.83958740234375,-0.165863037109375,-1.0189666748046875,-0.019500732421875
1791048997177546200,1.849546142578125,-0.141510009765625,-0.9954986572265625,0.0085296630859375
1791048997187504400,1.85950439453125,-0.1757659912109375,-1.0228118896484375,-0.036773681640625
1791048997197462300,1.869462158203125,-0.1422119140625,-0.98577880859375,0.0146331787109375
1791048997207421200,1.879421142578125,-0.180877685546875,-1.0121307373046875,-0.038421630859375
1791048997217379300,1.88937939453125,-0.14404296875,-1.0047149658203125,0.012725830078125
1791048997227337500,1.89933740234375,-0.1623382568359375,-0.99871826171875,-0.0214385986328125
1791048997237296400,1.90929638671875,-0.157012939453125,-1.0135955810546875,-0.0105133056640625
1791048997247254300,1.919254150390625,-0.1624908447265625,-0.9838104248046875,-0.006195068359375
1791048997257212200,1.929212158203125,-0.1739959716796875,-1.02410888671875,-0.0211181640625
1791048997267171000,1.939171142578125,-0.14404296875,-0.9952545166015625,0.000152587890625
1791048997277129200,1.949129150390625,-0.1808624267578125,-1.0200653076171875,-0.023895263671875
1791048997287087000,1.959087158203125,-0.1424407958984375,-1.0048828125,0.0037689208984375
1791048997297046300,1.96904638671875,-0.1853790283203125,-1.0102691650390625,-0.038055419921875
1791048997307004200,1.979004150390625,-0.135833740234375,-1.0075225830078125,-0.00213623046875
1791048997316962300,1.98896240234375,-0.18719482421875,-1.0036773681640625,-0.0318450927734375
1791048997326921200,1.998921142578125,-0.159088134765625,-1.0270843505859375,-0.01092529296875
1791048997336879400,2.00887939453125,-0.1639862060546875,-0.99652099609375,-0.0340118408203125
1791048997346837000,2.0188369140625,-0.165435791015625,-1.0088043212890625,-0.02130126953125
1791048997356796000,2.0287958984375,-0.15716552734375,-1.0047607421875,-0.030426025390625
1791048997366754000,2.038754150390625,-0.1787872314453125,-1.0123443603515625,-0.0355377197265625
1791048997376712200,2.048712158203125,-0.143524169921875,-1.005523681640625,-0.011505126953125
1791048997386671000,2.058671142578125,-0.185394287109375,-1.011993408203125,-0.044036865234375
1791048997396629000,2.06862890625,-0.142913818359375,-1.0046539306640625,-0.004302978515625
1791048997406587100,2.078587158203125,-0.17578125,-1.0001068115234375,-0.038543701171875
1791048997416545300,2.088545166015625,-0.1546173095703125,-0.997100830078125,-0.0196075439453125
1791048997426504200,2.098504150390625,-0.1727752685546875,-0.9959869384765625,-0.0381317138671875
1791048997436462000,2.108462158203125,-0.1573944091796875,-1.011138916015625,-0.0164031982421875
1791048997446420200,2.118420166015625,-0.1538238525390625,-0.9970703125,-0.0380096435546875
1791048997456379100,2.128379150390625,-0.1799468994140625,-1.009124755859375,-0.0194854736328125
1791048997466337300,2.138337158203125,-0.1620635986328125,-1.0074615478515625,-0.01849365234375
1791048997476295200,2.148295166015625,-0.1733551025390625,-1.01513671875,-0.033721923828125
1791048997486254300,2.15825439453125,-0.147369384765625,-1.0025634765625,-0.005584716796875
1791048997496212200,2.168212158203125,-0.194610595703125,-1.005615234375,-0.0274200439453125
1791048997506170000,2.178170166015625,-0.1594696044921875,-1.0073089599609375,0.0039215087890625
1791048997516129300,2.18812939453125,-0.174072265625,-0.995697021484375,-0.038970947265625
1791048997526087200,2.198087158203125,-0.1394195556640625,-1.0244140625,0.005157470703125
1791048997536045000,2.208045166015625,-0.1678619384765625,-0.9898529052734375,-0.0208892822265625
1791048997546004000,2.21800390625,-0.173126220703125,-1.007965087890625,-0.003448486328125
1791048997555962000,2.227962158203125,-0.1642608642578125,-0.972381591796875,-0.012237548828125
1791048997565920000,2.237919921875,-0.17449951171875,-1.008270263671875,-0.0219879150390625
1791048997575879200,2.247879150390625,-0.1351470947265625,-0.994354248046875,0.01385498046875
1791048997585837000,2.257837158203125,-0.1793365478515625,-0.9892730712890625,-0.030120849609375
1791048997595795200,2.267795166015625,-0.154022216796875,-0.9911346435546875,0.000885009765625
1791048997605754000,2.277754150390625,-0.1899261474609375,-0.99224853515625,-0.045257568359375
1791048997615712300,2.287712158203125,-0.1331634521484375,-1.0188751220703125,0.012664794921875
1791048997625670100,2.297670166015625,-0.171539306640625,-1.0019989013671875,-0.0291900634765625
1791048997635629000,2.307629150390625,-0.1637725830078125,-1.0040130615234375,0.010406494140625
1791048997645587200,2.317587158203125,-0.186614990234375,-0.9895782470703125,-0.031005859375
1791048997655545300,2.32754541015625,-0.1625518798828125,-1.007843017578125,-0.01007080078125
1791048997665504300,2.337504150390625,-0.147186279296875,-0.988983154296875,-0.002899169921875
1791048997675462100,2.347462158203125,-0.1748199462890625,-0.9962615966796875,-0.0170135498046875
1791048997685420000,2.357419921875,-0.1598663330078125,-0.995941162109375,0.0009613037109375
1791048997695379200,2.367379150390625,-0.1737823486328125,-0.99603271484375,-0.02490234375
1791048997705337000,2.377337158203125,-0.1516876220703125,-0.9947967529296875,0.018341064453125
1791048997715295000,2.387294921875,-0.1943206787109375,-0.995086669921875,-0.0356292724609375
1791048997725254100,2.397254150390625,-0.162689208984375,-1.001007080078125,0.0150146484375
1791048997735212000,2.4072119140625,-0.1849517822265625,-1.0126495361328125,-0.015045166015625
1791048997745170200,2.417170166015625,-0.1486663818359375,-1.021087646484375,0.013092041015625
1791048997755129000,2.427129150390625,-0.170867919921875,-1.006591796875,-0.0222625732421875
1791048997765087200,2.437087158203125,-0.165985107421875,-1.020416259765625,0.004638671875
1791048997775045000,2.447045166015625,-0.1676483154296875,-1.001708984375,-0.0108489990234375
1791048997785004000,2.457004150390625,-0.160736083984375,-1.0064697265625,-0.0027008056640625
1791048997794962200,2.466962158203125,-0.161468505859375,-1.008544921875,-0.000823974609375
1791048997804920300,2.47692041015625,-0.17822265625,-0.996490478515625,-0.000030517578125
1791048997814879200,2.486879150390625,-0.1646575927734375,-0.9951934814453125,0.0222930908203125
1791048997824837000,2.496837158203125,-0.1736297607421875,-0.9872894287109375,-0.0145111083984375
1791048997834795300,2.506795166015625,-0.1469879150390625,-1.0038604736328125,0.0358123779296875
1791048997844754200,2.516754150390625,-0.1773529052734375,-0.9668121337890625,-0.009674072265625
1791048997854712300,2.52671240234375,-0.172271728515625,-1.0180816650390625,0.0347900390625
1791048997864670000,2.536669921875,-0.1736602783203125,-0.9856414794921875,0.0074615478515625
1791048997874629400,2.54662939453125,-0.16070556640625,-1.0185546875,0.0333404541015625
1791048997884587000,2.5565869140625,-0.16912841796875,-0.989593505859375,0.00750732421875
1791048997894545200,2.566545166015625,-0.18719482421875,-1.0223846435546875,0.02972412109375
1791048997904504000,2.576504150390625,-0.160614013671875,-0.985107421875,0.030914306640625
1791048997914462200,2.586462158203125,-0.173004150390625,-1.0128173828125,0.0373077392578125
1791048997924420000,2.596420166015625,-0.161529541015625,-1.011444091796875,0.028472900390625
1791048997934379000,2.60637890625,-0.188140869140625,-1.007598876953125,0.0229339599609375
1791048997944337200,2.616337158203125,-0.15716552734375,-0.9897003173828125,0.0395050048828125
1791048997954295000,2.626294921875,-0.2037506103515625,-1.023468017578125,0.018096923828125
1791048997964254200,2.636254150390625,-0.1634979248046875,-1.0140838623046875,0.0348052978515625
1791048997974212000,2.646212158203125,-0.1916961669921875,-1.0099029541015625,0.0101776123046875
1791048997984170200,2.656170166015625,-0.17169189453125,-1.046630859375,0.0187835693359375
1791048997994129200,2.666129150390625,-0.193115234375,-1.0104827880859375,0.00494384765625
1791048998004087300,2.67608740234375,-0.16864013671875,-1.019073486328125,0.0334320068359375
1791048998014045200,2.686045166015625,-0.1750335693359375,-1.0285186767578125,0.0064239501953125
1791048998024004000,2.696004150390625,-0.147674560546875,-1.0139617919921875,0.0340423583984375
1791048998033962200,2.705962158203125,-0.175567626953125,-0.99713134765625,0.025054931640625
1791048998043920100,2.715920166015625,-0.1975555419921875,-0.9903411865234375,0.018402099609375
1791048998053879300,2.72587939453125,-0.1862335205078125,-0.99169921875,0.029632568359375
1791048998063837000,2.7358369140625,-0.1785888671875,-1.0038604736328125,-0.002166748046875
1791048998073795000,2.745795166015625,-0.1700439453125,-1.0051116943359375,0.034942626953125
1791048998083754000,2.75575390625,-0.218902587890625,-1.0044403076171875,-0.014862060546875
1791048998093712100,2.765712158203125,-0.1946868896484375,-0.989776611328125,0.02008056640625
1791048998103670000,2.775669921875,-0.2042388916015625,-1.0000457763671875,-0.0182952880859375
1791048998113629200,2.785629150390625,-0.1557769775390625,-1.011627197265625,0.01043701171875
1791048998123587000,2.795587158203125,-0.195953369140625,-0.9825439453125,-0.0125579833984375
1791048998133545200,2.805545166015625,-0.179229736328125,-0.995391845703125,0.016754150390625
1791048998143504100,2.815504150390625,-0.2103271484375,-0.9621429443359375,-0.0245513916015625
1791048998153462300,2.825462158203125,-0.185791015625,-1.008575439453125,0.018768310546875
1791048998163420200,2.835420166015625,-0.1975860595703125,-0.9864349365234375,-0.0302886962890625
1791048998173379000,2.845379150390625,-0.1861724853515625,-1.0045928955078125,0.001708984375
1791048998183337200,2.855337158203125,-0.2103271484375,-0.998321533203125,-0.0269012451171875
1791048998193295400,2.86529541015625,-0.193359375,-0.99493408203125,-0.033477783203125
1791048998203254300,2.875254150390625,-0.198211669921875,-0.9962615966796875,-0.035888671875
1791048998213212200,2.885212158203125,-0.1654205322265625,-1.004425048828125,-0.035186767578125
1791048998223170000,2.895170166015625,-0.182098388671875,-1.0041046142578125,-0.0437164306640625
1791048998233129200,2.905129150390625,-0.1618194580078125,-0.98162841796875,-0.028289794921875
1791048998243087000,2.915087158203125,-0.1966094970703125,-0.9818267822265625,-0.0197906494140625
1791048998253045000,2.925044921875,-0.170562744140625,-0.9775390625,-0.0208587646484375
1791048998263004400,2.93500439453125,-0.1751251220703125,-0.9993743896484375,-0.0186309814453125
1791048998272962000,2.944962158203125,-0.1835479736328125,-0.9849395751953125,-0.01373291015625
1791048998282920200,2.954920166015625,-0.201416015625,-0.9840240478515625,-0.02935791015625
1791048998292879000,2.964879150390625,-0.1887969970703125,-0.966827392578125,-0.0369110107421875
1791048998302837200,2.974837158203125,-0.1632843017578125,-1.005096435546875,-0.046539306640625
1791048998312795100,2.984795166015625,-0.1654205322265625,-0.9697265625,-0.038055419921875
1791048998322754000,2.994754150390625,-0.1639556884765625,-0.991455078125,-0.0372161865234375
1791048998332712200,3.004712158203125,-0.1697235107421875,-0.9643402099609375,-0.0322265625
1791048998342670000,3.014670166015625,-0.1485748291015625,-0.9826202392578125,0.0005645751953125
1791048998352629200,3.024629150390625,-0.165771484375,-0.972137451171875,-0.02496337890625
1791048998362587100,3.034587158203125,-0.159912109375,-0.96746826171875,0.0174560546875
1791048998372545300,3.044545166015625,-0.162384033203125,-0.9899139404296875,-0.0115814208984375
1791048998382504200,3.054504150390625,-0.1410369873046875,-0.990234375,0.006805419921875
1791048998392462300,3.06446240234375,-0.18182373046875,-0.97149658203125,-0.0133056640625
1791048998402420200,3.074420166015625,-0.157745361328125,-0.97528076171875,-0.0055084228515625
1791048998412379400,3.08437939453125,-0.1613616943359375,-0.9752197265625,-0.0210113525390625
1791048998422337300,3.094337158203125,-0.1297607421875,-0.985595703125,0.0066375732421875
1791048998432295200,3.104295166015625,-0.192352294921875,-0.982574462890625,-0.0076141357421875
1791048998442254300,3.11425439453125,-0.1634979248046875,-0.982025146484375,0.013763427734375
1791048998452212000,3.1242119140625,-0.1952667236328125,-0.9951629638671875,-0.0035552978515625
1791048998462170000,3.134170166015625,-0.1702728271484375,-0.982513427734375,0.04412841796875
1791048998472129000,3.14412890625,-0.215118408203125,-1.0013580322265625,-0.014373779296875
1791048998482087200,3.154087158203125,-0.1777191162109375,-1.0108795166015625,0.025177001953125
1791048998492045000,3.164045166015625,-0.2062225341796875,-1.0019073486328125,-0.0130462646484375
1791048998502004200,3.174004150390625,-0.179901123046875,-1.000885009765625,0.0084381103515625
1791048998511962000,3.183962158203125,-0.19927978515625,-1.013946533203125,-0.0196380615234375
1791048998521920300,3.193920166015625,-0.1617584228515625,-0.9879302978515625,-0.0023651123046875
1791048998531879200,3.203879150390625,-0.22674560546875,-1.012481689453125,-0.0161895751953125
1791048998541837300,3.21383740234375,-0.190826416015625,-0.9997100830078125,0.0047149658203125
1791048998551795200,3.223795166015625,-0.2161865234375,-1.03643798828125,-0.0007171630859375
1791048998561754000,3.233754150390625,-0.1685791015625,-1.00506591796875,0.0216827392578125
1791048998571712300,3.243712158203125,-0.244415283203125,-1.0128326416015625,0.0069580078125
1791048998581670400,3.25367041015625,-0.2183990478515625,-0.9964599609375,0.0214385986328125
1791048998591629300,3.26362939453125,-0.2218170166015625,-1.0019683837890625,-0.004180908203125
1791048998601587200,3.273587158203125,-0.1782073974609375,-1.0043182373046875,0.01812744140625
1791048998611545000,3.283545166015625,-0.214447021484375,-1.041748046875,-0.01605224609375
1791048998621504000,3.29350390625,-0.217254638671875,-0.99029541015625,0.0186767578125
1791048998631462100,3.303462158203125,-0.24310302734375,-1.0150146484375,-0.012939453125
1791048998641420000,3.313419921875,-0.20416259765625,-1.012725830078125,0.0052947998046875
1791048998651379200,3.323379150390625,-0.2135467529296875,-1.02777099609375,0.01763916015625
1791048998661337000,3.333337158203125,-0.189971923828125,-0.99267578125,0.024627685546875
1791048998671295200,3.343295166015625,-0.2305755615234375,-0.98687744140625,-0.0153961181640625
1791048998681254100,3.353254150390625,-0.200286865234375,-0.9770355224609375,0.021209716796875
1791048998691212300,3.36321240234375,-0.2068939208984375,-1.0115966796875,-0.00897216796875
1791048998701170200,3.373170166015625,-0.1793212890625,-0.9810791015625,0.015228271484375
1791048998711129000,3.383129150390625,-0.228973388671875,-1.001556396484375,-0.0183258056640625
1791048998721087200,3.393087158203125,-0.2142791748046875,-0.9814300537109375,0.016357421875
1791048998731045000,3.403045166015625,-0.2197418212890625,-1.0217742919921875,-0.0294647216796875
1791048998741004300,3.41300439453125,-0.177032470703125,-0.98797607421875,0.0102386474609375
1791048998750962200,3.422962158203125,-0.21533203125,-0.9959869384765625,0.000823974609375
1791048998760920300,3.43292041015625,-0.2049713134765625,-0.9740447998046875,0.00164794921875
1791048998770879200,3.442879150390625,-0.2065582275390625,-0.997314453125,0.001373291015625
1791048998780837400,3.45283740234375,-0.190948486328125,-0.9810791015625,0.0135498046875
1791048998790795000,3.462794921875,-0.2268218994140625,-1.00494384765625,0.0058441162109375
1791048998800754200,3.472754150390625,-0.2060699462890625,-0.989776611328125,0.006500244140625
1791048998810712000,3.482712158203125,-0.2190704345703125,-1.014068603515625,-0.011932373046875
1791048998820670200,3.492670166015625,-0.20013427734375,-0.979339599609375,0.023284912109375
1791048998830629000,3.502629150390625,-0.2370758056640625,-0.9876556396484375,-0.02716064453125
1791048998840587300,3.512587158203125,-0.203582763671875,-0.975860595703125,0.0162353515625
1791048998850545200,3.522545166015625,-0.2099609375,-0.994140625,-0.0165252685546875
1791048998860504000,3.532504150390625,-0.194366455078125,-0.9847259521484375,-0.00244140625
1791048998870462200,3.542462158203125,-0.2354888916015625,-0.9993896484375,-0.0233306884765625
1791048998880421000,3.552421142578125,-0.220306396484375,-0.9787445068359375,0.009490966796875
1791048998890379300,3.562379150390625,-0.225311279296875,-0.9908905029296875,-0.020233154296875
1791048998900337200,3.572337158203125,-0.184967041015625,-0.98577880859375,0.019805908203125
1791048998910296300,3.58229638671875,-0.22174072265625,-0.9821014404296875,-0.0046844482421875
1791048998920254200,3.592254150390625,-0.2006072998046875,-0.9745635986328125,0.0222015380859375
1791048998930212400,3.60221240234375,-0.233062744140625,-0.99322509765625,-0.0153045654296875
1791048998940171300,3.612171142578125,-0.199554443359375,-0.9905853271484375,0.0280609130859375
1791048998950129200,3.622129150390625,-0.22467041015625,-1.0012969970703125,0.0037384033203125
1791048998960087300,3.63208740234375,-0.2043304443359375,-0.995391845703125,0.0315399169921875
1791048998970046200,3.642046142578125,-0.231597900390625,-0.990814208984375,0.0153656005859375
1791048998980004000,3.652004150390625,-0.2181396484375,-0.97906494140625,0.0115509033203125
1791048998989962000,3.6619619140625,-0.23614501953125,-1.0079803466796875,0.0107421875
1791048998999921200,3.671921142578125,-0.1952362060546875,-1.00006103515625,0.0161590576171875
1791048999009879000,3.681879150390625,-0.21795654296875,-1.0091400146484375,-0.004608154296875
1791048999019837200,3.691837158203125,-0.20513916015625,-0.9864959716796875,0.02288818359375
1791048999029796000,3.701796142578125,-0.232452392578125,-0.9966583251953125,-0.0078125
1791048999039754200,3.711754150390625,-0.201141357421875,-0.9997100830078125,0.0106201171875
1791048999049712000,3.721712158203125,-0.2234649658203125,-0.9991302490234375,0.0102386474609375
1791048999059671000,3.731671142578125,-0.2171630859375,-1.011322021484375,0.0171356201171875
1791048999069629200,3.741629150390625,-0.23138427734375,-0.97991943359375,0.0078125
1791048999079587300,3.75158740234375,-0.2170562744140625,-0.9991607666015625,0.009979248046875
1791048999089546200,3.761546142578125,-0.2133941650390625,-0.9927825927734375,0.0208740234375
1791048999099504000,3.771504150390625,-0.2159881591796875,-1.0034027099609375,0.0042877197265625
1791048999109462300,3.781462158203125,-0.2308502197265625,-0.968597412109375,0.0422515869140625
1791048999119421200,3.791421142578125,-0.24322509765625,-0.9857025146484375,-0.0075531005859375
1791048999129379300,3.80137939453125,-0.2251739501953125,-0.9874725341796875,0.0309600830078125
1791048999139337200,3.811337158203125,-0.216888427734375,-1.005523681640625,-0.0098114013671875
1791048999149296400,3.82129638671875,-0.226470947265625,-0.9865570068359375,0.0153350830078125
1791048999159254000,3.83125390625,-0.2265167236328125,-0.9716033935546875,-0.018707275390625
1791048999169212200,3.841212158203125,-0.2201690673828125,-0.9768524169921875,0.010833740234375
1791048999179171000,3.851171142578125,-0.2056121826171875,-0.971588134765625,-0.007171630859375
1791048999189129200,3.861129150390625,-0.21417236328125,-0.95172119140625,0.0273895263671875
1791048999199087000,3.871087158203125,-0.237701416015625,-0.946563720703125,0.0001983642578125
1791048999209046000,3.8810458984375,-0.242645263671875,-0.9505462646484375,0.0250396728515625
1791048999219004200,3.891004150390625,-0.2440185546875,-0.97088623046875,0.0117950439453125
1791048999228962300,3.90096240234375,-0.2189483642578125,-0.9737701416015625,0.019989013671875
1791048999238921200,3.910921142578125,-0.245635986328125,-0.968109130859375,0.0079803466796875
1791048999248879000,3.920879150390625,-0.240142822265625,-0.958953857421875,0.020355224609375
1791048999258837200,3.930837158203125,-0.25311279296875,-0.9761199951171875,-0.0111236572265625
1791048999268796400,3.94079638671875,-0.2177276611328125,-0.9968414306640625,0.0168304443359375
1791048999278754600,3.950754638671875,-0.230560302734375,-0.9913330078125,-0.0053558349609375
1791048999288713500,3.96071337890625,-0.2299957275390625,-0.9934539794921875,0.01416015625
1791048999298671400,3.97067138671875,-0.247406005859375,-0.9951629638671875,0.018341064453125
1791048999308629500,3.98062939453125,-0.22589111328125,-1.0101776123046875,0.0135650634765625
1791048999318588400,3.99058837890625,-0.218994140625,-1.0149688720703125,0.0271148681640625
1791048999328546600,4.000546630859375,-0.2228240966796875,-0.998687744140625,0.0138092041015625
1791048999338504400,4.01050439453125,-0.2673187255859375,-1.034027099609375,-0.00921630859375
1791048999348463600,4.020463623046875,-0.2564544677734375,-1.00823974609375,0.0157318115234375
1791048999358421500,4.03042138671875,-0.27142333984375,-1.004974365234375,-0.0071258544921875
1791048999368379600,4.040379638671875,-0.246337890625,-1.0271453857421875,0.00335693359375
1791048999378338600,4.050338623046875,-0.2372283935546875,-1.0766754150390625,0.05029296875
1791048999388296700,4.060296630859375,-0.208984375,-1.06597900390625,0.00360107421875
1791048999398254600,4.070254638671875,-0.2436981201171875,-1.0274658203125,0.043304443359375
1791048999408213500,4.080213623046875,-0.272216796875,-1.0028533935546875,0.02960205078125
1791048999418171600,4.090171630859375,-0.2847442626953125,-1.037628173828125,0.0519866943359375
1791048999428129800,4.1001298828125,-0.259979248046875,-1.0640411376953125,0.0163726806640625
1791048999438088700,4.110088623046875,-0.2273406982421875,-1.0811004638671875,0.032562255859375
1791048999448046300,4.12004638671875,-0.2228240966796875,-1.069610595703125,-0.012664794921875
1791048999458004500,4.13000439453125,-0.2446441650390625,-1.0157928466796875,0.0216217041015625
1791048999467963400,4.13996337890625,-0.252197265625,-0.9377288818359375,0.0002288818359375
1791048999477921500,4.149921630859375,-0.24163818359375,-0.998291015625,0.014862060546875
1791048999487879400,4.15987939453125,-0.185028076171875,-0.9836273193359375,0.020111083984375
1791048999497838600,4.169838623046875,-0.1862640380859375,-1.023712158203125,0.0022430419921875
1791048999507796500,4.17979638671875,-0.1994171142578125,-0.9459991455078125,0.033416748046875
1791048999517754600,4.189754638671875,-0.24395751953125,-0.966033935546875,0.010711669921875
1791048999527713500,4.199713623046875,-0.208648681640625,-0.9475860595703125,0.034637451171875
1791048999537671700,4.209671630859375,-0.18756103515625,-0.9683685302734375,0.0123443603515625
1791048999547629600,4.219629638671875,-0.19720458984375,-0.95709228515625,0.0256805419921875
1791048999557588500,4.22958837890625,-0.2106475830078125,-0.9649658203125,-0.005615234375
1791048999567546600,4.239546630859375,-0.2035064697265625,-0.9497222900390625,0.009002685546875
1791048999577504500,4.24950439453125,-0.2000274658203125,-0.9733123779296875,-0.0264739990234375
1791048999587463700,4.259463623046875,-0.210845947265625,-0.9604339599609375,-0.0192718505859375
1791048999597421600,4.269421630859375,-0.2138214111328125,-0.9544677734375,-0.049530029296875
1791048999607379700,4.279379638671875,-0.1882781982421875,-0.9734344482421875,-0.032440185546875
1791048999617338600,4.289338623046875,-0.163238525390625,-0.959869384765625,-0.0557098388671875
1791048999627296500,4.299296630859375,-0.174407958984375,-0.94427490234375,-0.02435302734375
1791048999637255700,4.309255615234375,-0.19122314453125,-0.9093017578125,-0.033538818359375
1791048999647213600,4.319213623046875,-0.2009429931640625,-0.9119110107421875,-0.0247802734375
1791048999657171500,4.32917138671875,-0.1697845458984375,-0.9180755615234375,-0.0199127197265625
1791048999667130400,4.33913037109375,-0.16534423828125,-0.9518585205078125,-0.0168609619140625
1791048999677088500,4.349088623046875,-0.1711578369140625,-0.922515869140625,-0.007965087890625
1791048999687046400,4.35904638671875,-0.202850341796875,-0.93212890625,-0.0289154052734375
1791048999697005600,4.369005615234375,-0.1907196044921875,-0.9210205078125,-0.0047149658203125
1791048999706963500,4.37896337890625,-0.1713104248046875,-0.9406890869140625,-0.0258331298828125
1791048999716921600,4.388921630859375,-0.1546478271484375,-0.931732177734375,0.006103515625
1791048999726880500,4.398880615234375,-0.1728057861328125,-0.922760009765625,-0.0206298828125
1791048999736838700,4.408838623046875,-0.1770172119140625,-0.9339599609375,0.0200347900390625
1791048999746796500,4.418796630859375,-0.166229248046875,-0.9122467041015625,-0.0043487548828125
1791048999756755700,4.428755615234375,-0.18023681640625,-0.9381866455078125,0.0001220703125
1791048999766713600,4.438713623046875,-0.1805877685546875,-0.94097900390625,-0.00604248046875
1791048999776671700,4.448671630859375,-0.17193603515625,-0.9521331787109375,-0.007781982421875
1791048999786630700,4.458630615234375,-0.1610565185546875,-0.917938232421875,-0.0007171630859375
1791048999796588500,4.468588623046875,-0.1851806640625,-0.944305419921875,-0.024139404296875
1791048999806546400,4.47854638671875,-0.1744842529296875,-0.9193115234375,-0.010711669921875
1791048999816505600,4.488505615234375,-0.17413330078125,-0.9330596923828125,-0.029998779296875
1791048999826463500,4.49846337890625,-0.196990966796875,-0.9492950439453125,-0.0238189697265625
1791048999836421400,4.50842138671875,-0.235382080078125,-1.012847900390625,-0.0470733642578125
1791048999846380500,4.518380615234375,-0.2051239013671875,-0.9716339111328125,-0.0151214599609375
1791048999856338400,4.52833837890625,-0.22943115234375,-1.0036773681640625,-0.021636962890625
1791048999866296600,4.538296630859375,-0.1944580078125,-0.998291015625,-0.0024871826171875
1791048999876255500,4.54825537109375,-0.2247161865234375,-1.026519775390625,-0.006591796875
1791048999886213600,4.558213623046875,-0.2000732421875,-0.9895172119140625,0.0492706298828125
1791048999896171500,4.568171630859375,-0.269775390625,-0.9620513916015625,-0.00140380859375
1791048999906130400,4.57813037109375,-0.3020477294921875,-0.98309326171875,0.0426483154296875
1791048999916088600,4.588088623046875,-0.2830657958984375,-1.025238037109375,0.0442047119140625
1791048999926047500,4.598047607421875,-0.247344970703125,-1.1116943359375,0.010498046875
1791048999936005600,4.608005615234375,-0.20709228515625,-1.037841796875,0.0063323974609375
1791048999945963500,4.617963623046875,-0.2915802001953125,-1.0654144287109375,-0.01129150390625
1791048999955922700,4.627922607421875,-0.2826080322265625,-0.970611572265625,0.06524658203125
1791048999965880600,4.637880615234375,-0.2985382080078125,-1.03173828125,-0.002838134765625
1791048999975838700,4.647838623046875,-0.2513427734375,-1.0358734130859375,0.0847320556640625
1791048999985797600,4.657797607421875,-0.2749786376953125,-1.0925750732421875,0.0584259033203125
1791048999995755800,4.667755859375,-0.3011627197265625,-1.100128173828125,0.05133056640625
1791049000005713400,4.67771337890625,-0.337493896484375,-1.05035400390625,0.04229736328125
1791049000015672300,4.68767236328125,-0.360137939453125,-1.08868408203125,0.01806640625
1791049000025630500,4.69763037109375,-0.2767791748046875,-1.0666046142578125,0.02655029296875
1791049000035588600,4.707588623046875,-0.2400360107421875,-1.11297607421875,0.042724609375
1791049000045547500,4.717547607421875,-0.2137451171875,-1.0558929443359375,0.0536956787109375
1791049000055505400,4.72750537109375,-0.3088226318359375,-1.05938720703125,0.0648345947265625
1791049000065463600,4.737463623046875,-0.321990966796875,-1.0624847412109375,0.0612640380859375
1791049000075422500,4.74742236328125,-0.29931640625,-1.0510711669921875,0.0583953857421875
1791049000085380600,4.757380615234375,-0.2803802490234375,-1.0683441162109375,0.0605316162109375
1791049000095338500,4.76733837890625,-0.2681427001953125,-1.0414276123046875,0.0645751953125
1791049000105297700,4.777297607421875,-0.2637939453125,-1.058990478515625,0.0165557861328125
1791049000115255600,4.787255615234375,-0.2213592529296875,-0.9954071044921875,0.0352935791015625
1791049000125213700,4.797213623046875,-0.225128173828125,-1.011871337890625,0.014678955078125
1791049000135172600,4.807172607421875,-0.2542724609375,-1.008087158203125,0.0272216796875
1791049000145130800,4.817130859375,-0.253692626953125,-0.9962921142578125,0.04718017578125
1791049000155088600,4.827088623046875,-0.23480224609375,-0.9547576904296875,0.0166473388671875
1791049000165047600,4.837047607421875,-0.2539825439453125,-0.938629150390625,0.0360107421875
1791049000175005700,4.847005615234375,-0.2704010009765625,-0.9316864013671875,0.0263671875
1791049000184964600,4.856964599609375,-0.2682342529296875,-0.91387939453125,0.036590576171875
1791049000194922500,4.866922607421875,-0.229583740234375,-0.900543212890625,0.0367889404296875
1791049000204880400,4.87688037109375,-0.2026824951171875,-0.914459228515625,0.0380401611328125
1791049000214839600,4.886839599609375,-0.217926025390625,-0.9433746337890625,0.03363037109375
1791049000224797400,4.89679736328125,-0.2208404541015625,-0.8964996337890625,0.0177154541015625
1791049000234755600,4.906755615234375,-0.250579833984375,-0.8864593505859375,0.02294921875
1791049000244714500,4.916714599609375,-0.24200439453125,-0.9012908935546875,0.0004119873046875
1791049000254672600,4.926672607421875,-0.2169342041015625,-0.939483642578125,-0.01580810546875
1791049000264630300,4.93663037109375,-0.2042999267578125,-0.932281494140625,-0.0002593994140625
1791049000274589200,4.946589111328125,-0.2079925537109375,-0.899993896484375,-0.021148681640625
1791049000284547300,4.95654736328125,-0.259674072265625,-0.910186767578125,0.0017242431640625
1791049000294505500,4.96650537109375,-0.2394256591796875,-0.902008056640625,-0.002655029296875
1791049000304464400,4.97646435546875,-0.22283935546875,-0.9309844970703125,0.00762939453125
1791049000314422300,4.98642236328125,-0.2090301513671875,-0.8708038330078125,0.00994873046875
1791049000324380400,4.99638037109375,-0.2545318603515625,-0.9058837890625,-0.0176239013671875
1791049000334339300,5.00633935546875,-0.2335968017578125,-0.90533447265625,0.0095672607421875
1791049000344297500,5.01629736328125,-0.19683837890625,-0.9219818115234375,-0.007568359375
1791049000354255400,5.02625537109375,-0.20391845703125,-0.8976593017578125,0.0083160400390625
1791049000364214500,5.036214599609375,-0.2503509521484375,-0.8686981201171875,0.0032501220703125
1791049000374172400,5.04617236328125,-0.2691802978515625,-0.9322357177734375,0.01153564453125
1791049000384130600,5.056130615234375,-0.1962738037109375,-0.93951416015625,0.0196533203125
1791049000394089500,5.06608935546875,-0.193878173828125,-0.927215576171875,-0.004638671875
1791049000404047600,5.076047607421875,-0.2442626953125,-0.9176483154296875,0.018096923828125
1791049000414006500,5.086006591796875,-0.270599365234375,-0.9287261962890625,-0.030426025390625
1791049000423964400,5.09596435546875,-0.250701904296875,-0.959625244140625,-0.0120849609375
1791049000433922300,5.10592236328125,-0.1935882568359375,-0.9615020751953125,-0.0178070068359375
1791049000443881500,5.115881591796875,-0.2114715576171875,-0.98504638671875,-0.0467071533203125
1791049000453839400,5.12583935546875,-0.246307373046875,-0.9437103271484375,-0.0107879638671875
1791049000463797200,5.13579736328125,-0.284393310546875,-0.9072418212890625,-0.0538330078125
1791049000473756400,5.14575634765625,-0.2834625244140625,-0.980712890625,-0.0352935791015625
1791049000483714300,5.15571435546875,-0.19976806640625,-0.976104736328125,-0.051666259765625
1791049000493672400,5.16567236328125,-0.1987762451171875,-1.0626373291015625,-0.0006561279296875
1791049000503631400,5.17563134765625,-0.225311279296875,-0.9767608642578125,-0.0143890380859375
1791049000513589500,5.185589599609375,-0.3259124755859375,-1.031494140625,-0.040740966796875
1791049000523547400,5.19554736328125,-0.2585601806640625,-0.987945556640625,0.0104522705078125
1791049000533506300,5.20550634765625,-0.217132568359375,-1.0398101806640625,-0.03106689453125
1791049000543464400,5.21546435546875,-0.18084716796875,-1.057464599609375,0.0405426025390625
1791049000553422300,5.22542236328125,-0.2207183837890625,-1.0499267578125,-0.0438232421875
1791049000563381500,5.235381591796875,-0.251312255859375,-1.09783935546875,0.0003204345703125
1791049000573339400,5.24533935546875,-0.2130279541015625,-1.033660888671875,-0.0220489501953125
1791049000583297500,5.255297607421875,-0.254974365234375,-1.1078643798828125,-0.0319671630859375
1791049000593256400,5.26525634765625,-0.250152587890625,-1.08990478515625,0.0269012451171875
1791049000603214600,5.275214599609375,-0.2301025390625,-1.0668182373046875,-0.0307159423828125
1791049000613173500,5.285173583984375,-0.21630859375,-1.0400390625,0.01739501953125
1791049000623131400,5.29513134765625,-0.2375640869140625,-1.0228729248046875,-0.0185089111328125
1791049000633089300,5.30508935546875,-0.2788848876953125,-1.063446044921875,0.018218994140625
1791049000643048200,5.315048095703125,-0.231109619140625,-1.028045654296875,0.0169525146484375
1791049000653006300,5.32500634765625,-0.2188262939453125,-1.059478759765625,-0.0076141357421875
1791049000662964200,5.334964111328125,-0.2150421142578125,-1.051422119140625,0.0581817626953125
1791049000672923400,5.34492333984375,-0.251556396484375,-0.9926300048828125,0.028045654296875
1791049000682881300,5.35488134765625,-0.30242919921875,-0.9805755615234375,0.0299072265625
1791049000692839400,5.36483935546875,-0.2898101806640625,-0.9938201904296875,0.02801513671875
1791049000702798300,5.37479833984375,-0.262359619140625,-1.0690155029296875,-0.0247955322265625
1791049000712756500,5.384756591796875,-0.1641082763671875,-1.0041351318359375,0.04669189453125
1791049000722714400,5.39471435546875,-0.206573486328125,-0.9659881591796875,-0.0216522216796875
1791049000732673300,5.40467333984375,-0.2722930908203125,-0.9163360595703125,0.0476226806640625
1791049000742631400,5.41463134765625,-0.3005218505859375,-0.931884765625,0.0163116455078125
1791049000752589600,5.424589599609375,-0.2574920654296875,-0.941070556640625,0.0581207275390625
1791049000762548500,5.434548583984375,-0.2054901123046875,-0.956390380859375,0.0533294677734375
1791049000772506400,5.44450634765625,-0.238037109375,-0.975738525390625,0.0333709716796875
1791049000782464500,5.454464599609375,-0.280364990234375,-0.886627197265625,0.04693603515625
1791049000792423400,5.46442333984375,-0.3190460205078125,-0.9254913330078125,-0.006103515625
1791049000802381300,5.47438134765625,-0.2714691162109375,-0.9079132080078125,0.0647735595703125
1791049000812340500,5.484340576171875,-0.2093963623046875,-0.955902099609375,0.00384521484375
1791049000822298400,5.49429833984375,-0.215789794921875,-0.922698974609375,0.03955078125
1791049000832256300,5.50425634765625,-0.268798828125,-0.8808746337890625,0.037261962890625
1791049000842215400,5.51421533203125,-0.2926025390625,-0.858428955078125,0.02374267578125
1791049000852173300,5.52417333984375,-0.277557373046875,-0.92218017578125,0.040771484375
1791049000862131500,5.53413134765625,-0.2224884033203125,-0.9412384033203125,0.021820068359375
1791049000872090400,5.54409033203125,-0.2212982177734375,-0.965972900390625,0.04620361328125
1791049000882048300,5.55404833984375,-0.25030517578125,-0.890594482421875,0.0295562744140625
1791049000892006400,5.56400634765625,-0.3263092041015625,-0.926483154296875,0.0184326171875
1791049000901965300,5.57396533203125,-0.2589874267578125,-0.9356689453125,0.054290771484375
1791049000911923500,5.58392333984375,-0.2015533447265625,-0.966644287109375,0.0056610107421875
1791049000921881300,5.59388134765625,-0.2094573974609375,-0.9612884521484375,0.0463409423828125
1791049000931840500,5.603840576171875,-0.2620697021484375,-0.925994873046875,0.00372314453125
1791049000941798400,5.61379833984375,-0.3146820068359375,-0.955047607421875,0.0255279541015625
1791049000951756500,5.623756591796875,-0.264892578125,-0.925445556640625,0.04327392578125
1791049000961715500,5.633715576171875,-0.2328948974609375,-0.9741363525390625,-0.000518798828125
1791049000971673600,5.643673583984375,-0.2377471923828125,-0.949432373046875,0.0651397705078125
1791049000981631200,5.65363134765625,-0.2767333984375,-0.91534423828125,-0.002410888671875
1791049000991590400,5.66359033203125,-0.3119354248046875,-0.9490203857421875,0.0401153564453125
1791049001001549600,5.673549560546875,-0.2517547607421875,-0.969757080078125,-0.0012054443359375
1791049001011507500,5.683507568359375,-0.2423858642578125,-1.054443359375,0.0038604736328125
1791049001021465300,5.69346533203125,-0.2386474609375,-0.9879150390625,0.01708984375
1791049001031424300,5.70342431640625,-0.267791748046875,-0.990020751953125,-0.0112457275390625
1791049001041382400,5.71338232421875,-0.2618865966796875,-1.0320281982421875,0.0203704833984375
1791049001051341300,5.72334130859375,-0.1972808837890625,-1.0212860107421875,0.005615234375
1791049001061299200,5.73329931640625,-0.22467041015625,-1.015533447265625,0.0084991455078125
1791049001071257300,5.74325732421875,-0.2878265380859375,-0.9433441162109375,0.0200347900390625
1791049001081216300,5.75321630859375,-0.2725677490234375,-1.015960693359375,-0.0495452880859375
1791049001091174400,5.76317431640625,-0.1903533935546875,-1.0530242919921875,0.0081787109375
1791049001101132300,5.77313232421875,-0.102081298828125,-1.0356597900390625,-0.031951904296875
1791049001111091500,5.783091552734375,-0.170806884765625,-1.0250701904296875,-0.0013275146484375
1791049001121049300,5.79304931640625,-0.2607574462890625,-0.98779296875,-0.003875732421875
1791049001131007500,5.803007568359375,-0.2998504638671875,-0.9981842041015625,-0.029754638671875
1791049001140966400,5.81296630859375,-0.2397003173828125,-1.0344085693359375,-0.00457763671875
1791049001150924500,5.822924560546875,-0.205902099609375,-1.03802490234375,-0.0406494140625
1791049001160882400,5.83288232421875,-0.2182464599609375,-1.058502197265625,-0.00213623046875
1791049001170841300,5.84284130859375,-0.235321044921875,-1.0083160400390625,-0.0478515625
1791049001180799500,5.852799560546875,-0.2091522216796875,-1.0608367919921875,-0.0358734130859375
1791049001190757600,5.862757568359375,-0.1538238525390625,-1.0352020263671875,0.00677490234375
1791049001200716500,5.872716552734375,-0.16937255859375,-1.011474609375,-0.005584716796875
1791049001210674200,5.882674072265625,-0.256195068359375,-0.970428466796875,-0.0057830810546875
1791049001220633600,5.892633544921875,-0.308319091796875,-0.959320068359375,-0.05877685546875
1791049001230591200,5.90259130859375,-0.2650604248046875,-1.0211029052734375,-0.007659912109375
1791049001240549400,5.91254931640625,-0.2003326416015625,-1.0413818359375,-0.0418701171875
1791049001250508300,5.92250830078125,-0.1887054443359375,-1.030853271484375,-0.0320587158203125
1791049001260466400,5.932466552734375,-0.235015869140625,-0.9913330078125,-0.0165863037109375
1791049001270423600,5.942423583984375,-0.239044189453125,-0.9975738525390625,-0.0502471923828125
1791049001280382700,5.9523828125,-0.1860504150390625,-0.988037109375,0.0006561279296875
1791049001290340600,5.962340576171875,-0.2006683349609375,-0.9929962158203125,-0.00665283203125
1791049001300298800,5.972298828125,-0.269073486328125,-0.93951416015625,-0.0083160400390625
1791049001310257700,5.982257568359375,-0.3255157470703125,-0.9438018798828125,0.0130767822265625
1791049001320215800,5.9922158203125,-0.302337646484375,-0.932830810546875,-0.0139617919921875
1791049001330173700,6.002173583984375,-0.2563323974609375,-0.9739990234375,0.0418701171875
1791049001340132600,6.012132568359375,-0.222869873046875,-0.9588470458984375,-0.010040283203125
1791049001350090800,6.0220908203125,-0.2245635986328125,-0.95318603515625,0.033843994140625
1791049001360049000,6.032048828125,-0.24981689453125,-0.9714508056640625,-0.0003662109375
1791049001370007800,6.0420078125,-0.215179443359375,-0.9541168212890625,0.009552001953125
1791049001379965700,6.051965576171875,-0.20751953125,-0.96563720703125,0.03411865234375
1791049001389924900,6.0619248046875,-0.2310333251953125,-0.939453125,0.026214599609375
1791049001399882800,6.0718828125,-0.2743988037109375,-0.9193115234375,0.0476531982421875
1791049001409840600,6.081840576171875,-0.289031982421875,-0.91943359375,0.0357818603515625
1791049001419799800,6.0917998046875,-0.271087646484375,-0.93243408203125,0.0411376953125
1791049001429757700,6.1017578125,-0.246246337890625,-0.9501495361328125,0.0315093994140625
1791049001439715600,6.111715576171875,-0.2094573974609375,-0.95489501953125,0.041778564453125
1791049001449674500,6.121674560546875,-0.249420166015625,-0.9718780517578125,0.0229339599609375
1791049001459632600,6.131632568359375,-0.2351226806640625,-0.952423095703125,0.0606536865234375
1791049001469590800,6.1415908203125,-0.2754974365234375,-0.9618988037109375,0.0184173583984375
1791049001479549700,6.1515498046875,-0.2489013671875,-0.978759765625,0.061614990234375
1791049001489507600,6.161507568359375,-0.2632293701171875,-0.9786834716796875,0.022918701171875
1791049001499465700,6.1714658203125,-0.2367401123046875,-0.9871978759765625,0.04730224609375
1791049001509424600,6.181424560546875,-0.2704925537109375,-0.9672698974609375,0.01507568359375
1791049001519382800,6.1913828125,-0.2573394775390625,-0.975189208984375,0.0365142822265625
1791049001529340700,6.201340576171875,-0.2354278564453125,-0.9585113525390625,0.0192413330078125
1791049001539299800,6.2112998046875,-0.227386474609375,-0.98590087890625,0.0274658203125
1791049001549257700,6.2212578125,-0.26519775390625,-0.991241455078125,0.0513916015625
1791049001559216600,6.231216552734375,-0.2742919921875,-0.9682464599609375,0.04168701171875
1791049001569174800,6.2411748046875,-0.2449188232421875,-0.9940643310546875,0.041900634765625
1791049001579132700,6.251132568359375,-0.2288970947265625,-1.0193939208984375,0.0229644775390625
1791049001589091800,6.261091796875,-0.2392120361328125,-1.021026611328125,0.0566864013671875
1791049001599049500,6.271049560546875,-0.2788543701171875,-0.954803466796875,0.0118560791015625
1791049001609007600,6.281007568359375,-0.2818145751953125,-1.0050201416015625,0.03228759765625
1791049001618966500,6.290966552734375,-0.2306060791015625,-1.015625,0.0027008056640625
1791049001628924700,6.300924560546875,-0.20654296875,-1.0348052978515625,0.019287109375
1791049001638882600,6.310882568359375,-0.2695770263671875,-0.9580535888671875,-0.006927490234375
1791049001648841700,6.320841796875,-0.30780029296875,-0.9700469970703125,0.021820068359375
1791049001658799600,6.330799560546875,-0.302825927734375,-0.969879150390625,-0.0245513916015625
1791049001668757800,6.3407578125,-0.236541748046875,-1.011688232421875,0.0042877197265625
1791049001678716700,6.350716552734375,-0.2525177001953125,-1.0106658935546875,-0.0094757080078125
1791049001688674800,6.3606748046875,-0.2693634033203125,-0.9817657470703125,0.0130615234375
1791049001698633700,6.3706337890625,-0.2763671875,-0.9878997802734375,-0.013763427734375
1791049001708591600,6.380591552734375,-0.21148681640625,-0.996673583984375,0.0095062255859375
1791049001718549800,6.3905498046875,-0.2009124755859375,-1.021148681640625,0.0039215087890625
1791049001728508700,6.4005087890625,-0.2384185791015625,-0.9682464599609375,0.0115203857421875
1791049001738466800,6.410466796875,-0.288848876953125,-0.9558868408203125,-0.0040740966796875
1791049001748424700,6.4204248046875,-0.299468994140625,-0.9668121337890625,-0.02398681640625
1791049001758383900,6.4303837890625,-0.2199859619140625,-1.01190185546875,0.0066070556640625
1791049001768341800,6.440341796875,-0.2146759033203125,-0.9638671875,-0.0283660888671875
1791049001778299600,6.450299560546875,-0.225067138671875,-0.97161865234375,0.0096588134765625
1791049001788258800,6.4602587890625,-0.2669219970703125,-0.93609619140625,-0.005889892578125
1791049001798216700,6.470216796875,-0.2115478515625,-0.989410400390625,0.02880859375
1791049001808174600,6.480174560546875,-0.1725311279296875,-0.949462890625,0.0124359130859375
1791049001818133500,6.490133544921875,-0.22259521484375,-0.9517364501953125,0.0378570556640625
1791049001828091600,6.500091552734375,-0.263458251953125,-0.9193267822265625,0.048248291015625
1791049001838049500,6.510049560546875,-0.2640228271484375,-0.942230224609375,0.0066680908203125
1791049001848008700,6.5200087890625,-0.185394287109375,-0.9386444091796875,0.067626953125
1791049001857966600,6.529966552734375,-0.190338134765625,-0.963958740234375,0.0071868896484375
1791049001867925800,6.53992578125,-0.219512939453125,-0.91741943359375,0.0840606689453125
1791049001877883600,6.549883544921875,-0.2903289794921875,-0.917266845703125,0.0041656494140625
1791049001887841800,6.559841796875,-0.2444000244140625,-0.9257659912109375,0.0361785888671875
1791049001897800700,6.56980078125,-0.2188720703125,-0.938079833984375,0.0335540771484375
1791049001907758600,6.579758544921875,-0.1988067626953125,-0.9680633544921875,0.0304107666015625
1791049001917716700,6.589716796875,-0.2518768310546875,-0.892669677734375,0.0181884765625
1791049001927675600,6.599675537109375,-0.3010101318359375,-0.910247802734375,-0.001434326171875
1791049001937633800,6.6096337890625,-0.299102783203125,-0.8878021240234375,0.0205535888671875
1791049001947591700,6.619591796875,-0.2700347900390625,-0.9350738525390625,-0.00396728515625
1791049001957550800,6.62955078125,-0.23553466796875,-0.952423095703125,0.0252227783203125
1791049001967508700,6.6395087890625,-0.25341796875,-0.9343414306640625,-0.011505126953125
1791049001977466600,6.649466552734375,-0.3074493408203125,-0.9076080322265625,-0.0040130615234375
1791049001987425800,6.65942578125,-0.322540283203125,-0.9168548583984375,-0.0278472900390625
1791049001997383700,6.6693837890625,-0.2787933349609375,-0.93377685546875,0.0000152587890625
1791049002007341600,6.679341552734375,-0.256866455078125,-0.9599456787109375,-0.021270751953125
1791049002017300500,6.689300537109375,-0.2932891845703125,-0.9461669921875,-0.0202484130859375
1791049002027258600,6.699258544921875,-0.3550872802734375,-0.926513671875,-0.0140228271484375
1791049002037217500,6.709217529296875,-0.3368682861328125,-0.934326171875,-0.0071258544921875
1791049002047175700,6.71917578125,-0.3032684326171875,-0.96917724609375,-0.0155792236328125
1791049002057133600,6.729133544921875,-0.2964630126953125,-0.98828125,0.0065765380859375
1791049002067092700,6.7390927734375,-0.3191680908203125,-0.964080810546875,-0.029052734375
1791049002077050600,6.749050537109375,-0.35650634765625,-0.9513397216796875,-0.033966064453125
1791049002087008800,6.7590087890625,-0.3378143310546875,-0.9659271240234375,-0.0231781005859375
1791049002096967700,6.7689677734375,-0.3197784423828125,-0.9877777099609375,-0.0090179443359375
1791049002106925800,6.77892578125,-0.3065032958984375,-0.96209716796875,-0.0244598388671875
1791049002116883700,6.7888837890625,-0.3435821533203125,-0.962646484375,-0.0353240966796875
1791049002126842600,6.798842529296875,-0.322723388671875,-0.93658447265625,0.0038604736328125
1791049002136800800,6.80880078125,-0.280242919921875,-0.9370574951171875,-0.01312255859375
1791049002146759000,6.818759033203125,-0.2486419677734375,-0.92724609375,-0.014190673828125
1791049002156717800,6.8287177734375,-0.2858123779296875,-0.9201507568359375,-0.0070343017578125
1791049002166675500,6.838675537109375,-0.331756591796875,-0.9087371826171875,-0.0131072998046875
1791049002176635000,6.848634765625,-0.33465576171875,-0.9621429443359375,-0.0030059814453125
1791049002186592500,6.858592529296875,-0.3003997802734375,-1.0127410888671875,-0.0092926025390625
1791049002196550700,6.868550537109375,-0.29541015625,-0.9852294921875,0.018707275390625
1791049002206509600,6.878509521484375,-0.3365325927734375,-0.9798583984375,0.00616455078125
1791049002216467700,6.8884677734375,-0.3252105712890625,-0.925750732421875,0.0165252685546875
1791049002226425600,6.898425537109375,-0.309967041015625,-0.9341888427734375,0.044158935546875
1791049002236384500,6.908384521484375,-0.292938232421875,-0.956268310546875,0.015167236328125
1791049002246342700,6.9183427734375,-0.348541259765625,-0.9529876708984375,0.020477294921875
1791049002256300800,6.92830078125,-0.369903564453125,-0.9368133544921875,0.0364990234375
1791049002266259500,6.938259521484375,-0.392852783203125,-1.02899169921875,0.016448974609375
1791049002276217300,6.94821728515625,-0.35015869140625,-1.024139404296875,0.04486083984375
1791049002286175500,6.958175537109375,-0.3531646728515625,-0.994903564453125,0.0299072265625
1791049002296134400,6.968134521484375,-0.3983154296875,-0.9751129150390625,0.0333404541015625
1791049002306092500,6.978092529296875,-0.4028167724609375,-1.0048828125,0.036529541015625
1791049002316051500,6.988051513671875,-0.3626708984375,-1.012969970703125,0.0396575927734375
1791049002326009600,6.998009521484375,-0.370880126953125,-0.9821319580078125,0.0451507568359375
1791049002335967500,7.007967529296875,-0.43780517578125,-1.0089111328125,0.0463409423828125
1791049002345926400,7.017926513671875,-0.4579315185546875,-1.007232666015625,0.0691986083984375
1791049002355884500,7.027884521484375,-0.4284820556640625,-1.02227783203125,0.0548553466796875
1791049002365842700,7.0378427734375,-0.3930206298828125,-1.0439453125,0.0756378173828125
1791049002375801600,7.047801513671875,-0.3750762939453125,-1.0247039794921875,0.060333251953125
1791049002385759500,7.057759521484375,-0.388336181640625,-0.9740447998046875,0.03692626953125
1791049002395717600,7.067717529296875,-0.4074859619140625,-0.96710205078125,0.0447235107421875
1791049002405676500,7.077676513671875,-0.3689727783203125,-0.9639434814453125,0.08245849609375
1791049002415634700,7.087634765625,-0.3135528564453125,-0.9735565185546875,0.059967041015625
1791049002425592300,7.09759228515625,-0.3431549072265625,-0.9791412353515625,0.0745697021484375
1791049002435551500,7.107551513671875,-0.383636474609375,-0.947784423828125,0.0449066162109375
1791049002445509400,7.11750927734375,-0.3916015625,-0.9457550048828125,0.0654296875
1791049002455468500,7.127468505859375,-0.3429718017578125,-0.9404144287109375,0.022216796875
1791049002465426400,7.137426513671875,-0.2915802001953125,-0.9438934326171875,0.0284881591796875
1791049002475384600,7.147384521484375,-0.2978515625,-0.9203033447265625,-0.003326416015625
1791049002485343500,7.157343505859375,-0.3346099853515625,-0.9022216796875,-0.006927490234375
1791049002495301400,7.16730126953125,-0.33184814453125,-0.9042510986328125,-0.0185089111328125
1791049002505259500,7.177259521484375,-0.293060302734375,-0.9173736572265625,-0.02374267578125
1791049002515218400,7.187218505859375,-0.286865234375,-0.9765625,-0.026092529296875
1791049002525176600,7.197176513671875,-0.2942657470703125,-0.9318084716796875,-0.0532989501953125
1791049002535134500,7.207134521484375,-0.3550567626953125,-0.9290771484375,-0.0494842529296875
1791049002545093600,7.21709375,-0.3470306396484375,-0.9347686767578125,-0.056793212890625
1791049002555051500,7.227051513671875,-0.32867431640625,-0.9566497802734375,-0.0866851806640625
1791049002565009700,7.237009765625,-0.260467529296875,-0.934814453125,-0.0547637939453125
1791049002574968600,7.246968505859375,-0.30218505859375,-0.97216796875,-0.0870819091796875
1791049002584926700,7.2569267578125,-0.302734375,-0.950836181640625,-0.0989990234375
1791049002594885600,7.2668857421875,-0.3245697021484375,-0.957061767578125,-0.0981903076171875
1791049002604843500,7.276843505859375,-0.311798095703125,-0.9731292724609375,-0.0999755859375
1791049002614801400,7.286801513671875,-0.3005523681640625,-0.9758758544921875,-0.1034698486328125
1791049002624760600,7.296760498046875,-0.2855377197265625,-0.9449005126953125,-0.088653564453125
1791049002634718500,7.306718505859375,-0.2960662841796875,-0.930938720703125,-0.0686187744140625
1791049002644676400,7.31667626953125,-0.3036041259765625,-0.928131103515625,-0.07745361328125
1791049002654635500,7.326635498046875,-0.281219482421875,-0.902435302734375,-0.0430908203125
1791049002664593400,7.336593505859375,-0.2892303466796875,-0.8990936279296875,-0.0621337890625
1791049002674551600,7.346551513671875,-0.320770263671875,-0.946563720703125,-0.072601318359375
1791049002684510500,7.356510498046875,-0.3359222412109375,-0.938568115234375,-0.05426025390625
1791049002694468600,7.366468505859375,-0.350555419921875,-0.910858154296875,-0.06243896484375
1791049002704426500,7.376426513671875,-0.365142822265625,-0.8856658935546875,-0.056427001953125
1791049002714385400,7.386385498046875,-0.34991455078125,-0.8987274169921875,-0.0345916748046875
1791049002724343600,7.396343505859375,-0.303619384765625,-0.9474029541015625,-0.02581787109375
1791049002734302500,7.406302490234375,-0.253570556640625,-0.971343994140625,-0.0100555419921875
1791049002744260600,7.416260498046875,-0.247161865234375,-0.915740966796875,-0.00042724609375
1791049002754218500,7.426218505859375,-0.3191375732421875,-0.91729736328125,0.02691650390625
1791049002764177700,7.436177734375,-0.3536834716796875,-0.9576263427734375,-0.0035552978515625
1791049002774135600,7.446135498046875,-0.307373046875,-0.9494781494140625,0.0106201171875
1791049002784093700,7.45609375,-0.3105316162109375,-0.946258544921875,0.019439697265625
1791049002794052600,7.466052490234375,-0.364410400390625,-0.94317626953125,0.0388946533203125
1791049002804010800,7.4760107421875,-0.3719940185546875,-0.9494476318359375,0.0533294677734375
1791049002813968400,7.485968505859375,-0.3030242919921875,-0.968170166015625,0.0573272705078125
1791049002823927300,7.49592724609375,-0.2501678466796875,-1.01165771484375,0.07794189453125
1791049002833885400,7.505885498046875,-0.2513275146484375,-1.0131072998046875,0.09814453125
1791049002843843600,7.515843505859375,-0.304901123046875,-1.000244140625,0.0665435791015625
1791049002853802500,7.525802490234375,-0.3170013427734375,-0.98895263671875,0.0594329833984375
1791049002863760400,7.535760498046875,-0.31951904296875,-1.0166473388671875,0.0619659423828125
1791049002873719600,7.545719482421875,-0.2909088134765625,-0.985931396484375,0.059906005859375
1791049002883677400,7.555677490234375,-0.344512939453125,-0.96343994140625,0.0724334716796875
1791049002893635600,7.565635498046875,-0.3399505615234375,-0.9842681884765625,0.075408935546875
1791049002903594500,7.575594482421875,-0.31695556640625,-1.0077667236328125,0.1210174560546875
1791049002913552600,7.585552734375,-0.2808074951171875,-1.02142333984375,0.09912109375
1791049002923510500,7.595510498046875,-0.3057403564453125,-1.0070953369140625,0.1126861572265625
1791049002933469400,7.605469482421875,-0.337738037109375,-0.9570465087890625,0.0997467041015625
1791049002943427600,7.615427490234375,-0.361236572265625,-0.9844207763671875,0.0834197998046875
1791049002953385500,7.625385498046875,-0.3356170654296875,-0.9743194580078125,0.0833892822265625
1791049002963344600,7.6353447265625,-0.3426513671875,-0.9684295654296875,0.0718231201171875
1791049002973302500,7.645302490234375,-0.35699462890625,-0.91253662109375,0.0604705810546875
1791049002983260700,7.6552607421875,-0.36798095703125,-0.9517974853515625,0.0367279052734375
1791049002993219600,7.665219482421875,-0.3276824951171875,-0.977783203125,0.0522308349609375
1791049003003177500,7.675177490234375,-0.3050537109375,-0.9679718017578125,0.0680084228515625
1791049003013136600,7.68513671875,-0.3495635986328125,-0.946807861328125,0.034698486328125
1791049003023094500,7.695094482421875,-0.405242919921875,-0.9186248779296875,0.035064697265625
1791049003033052400,7.705052490234375,-0.38128662109375,-0.9013519287109375,0.0240631103515625
1791049003043011300,7.71501123046875,-0.3439178466796875,-0.9105377197265625,0.0419921875
1791049003052969500,7.724969482421875,-0.3072662353515625,-0.9115447998046875,-0.0007781982421875
1791049003062927400,7.73492724609375,-0.35064697265625,-0.8876495361328125,0.01483154296875
1791049003072886500,7.744886474609375,-0.3919525146484375,-0.904510498046875,-0.03143310546875
1791049003082844400,7.754844482421875,-0.356475830078125,-0.96051025390625,-0.004974365234375
1791049003092802600,7.764802490234375,-0.3206329345703125,-0.9552001953125,-0.0380859375
1791049003102761500,7.774761474609375,-0.3385772705078125,-0.960296630859375,-0.013641357421875
1791049003112719600,7.7847197265625,-0.392120361328125,-0.97601318359375,0.0014495849609375
1791049003122678500,7.794678466796875,-0.3816680908203125,-0.933197021484375,-0.0320587158203125
1791049003132636700,7.80463671875,-0.3595733642578125,-0.9244384765625,-0.0062408447265625
1791049003142594600,7.814594482421875,-0.3585357666015625,-0.9409332275390625,-0.0016326904296875
1791049003152553500,7.824553466796875,-0.342376708984375,-0.936309814453125,-0.017547607421875
1791049003162511600,7.83451171875,-0.327911376953125,-0.9370574951171875,-0.0193634033203125
1791049003172469500,7.844469482421875,-0.3271942138671875,-0.9513397216796875,-0.0058135986328125
1791049003182428700,7.8544287109375,-0.343475341796875,-0.9657440185546875,-0.025787353515625
1791049003192386600,7.864386474609375,-0.33575439453125,-0.8970794677734375,-0.0499725341796875
1791049003202344400,7.874344482421875,-0.348541259765625,-0.8931884765625,-0.02423095703125
1791049003212303600,7.8843037109375,-0.33734130859375,-0.943359375,-0.0158538818359375
1791049003222261500,7.894261474609375,-0.29888916015625,-0.914276123046875,-0.024505615234375
1791049003232219400,7.904219482421875,-0.309844970703125,-0.87030029296875,-0.0102691650390625
1791049003242178600,7.914178466796875,-0.3500823974609375,-0.9491729736328125,0.00506591796875
1791049003252136400,7.924136474609375,-0.291595458984375,-0.96197509765625,-0.0124053955078125
1791049003262095400,7.934095458984375,-0.2409820556640625,-0.9222259521484375,0.001251220703125
1791049003272053800,7.9440537109375,-0.2749481201171875,-0.927093505859375,0.0017547607421875
1791049003282011600,7.95401171875,-0.35015869140625,-0.9175567626953125,0.00433349609375
1791049003291970800,7.963970703125,-0.34381103515625,-0.8978271484375,0.0027618408203125
1791049003301928700,7.9739287109375,-0.3132476806640625,-0.8846282958984375,0.0396728515625
1791049003311886600,7.983886474609375,-0.300689697265625,-0.9239349365234375,0.033538818359375
1791049003321845500,7.993845458984375,-0.3090667724609375,-0.937896728515625,0.0204925537109375
1791049003331803600,8.0038037109375,-0.3134613037109375,-0.924041748046875,0.046234130859375
1791049003341761500,8.013761474609375,-0.298980712890625,-0.957061767578125,-0.001708984375
1791049003351720400,8.023720458984375,-0.288360595703125,-0.9733123779296875,0.0190887451171875
1791049003361678600,8.0336787109375,-0.3099212646484375,-0.939971923828125,0.0233154296875
1791049003371636700,8.04363671875,-0.3442840576171875,-0.9168243408203125,0.008636474609375
1791049003381595600,8.053595703125,-0.3838043212890625,-0.9160919189453125,0.041717529296875
1791049003391553500,8.063553466796876,-0.3661956787109375,-0.9388885498046875,0.02789306640625
1791049003401512700,8.0735126953125,-0.325775146484375,-0.9654083251953125,0.0573272705078125
1791049003411470600,8.083470703125,-0.335296630859375,-0.9670867919921875,0.0277099609375
1791049003421428700,8.0934287109375,-0.354400634765625,-0.9593658447265625,0.02349853515625
1791049003431387600,8.1033876953125,-0.3605804443359375,-0.96002197265625,0.0437164306640625
1791049003441345800,8.113345703125,-0.336517333984375,-0.969635009765625,0.007171630859375
1791049003451303700,8.1233037109375,-0.3337554931640625,-0.9888153076171875,0.0445556640625
1791049003461262600,8.1332626953125,-0.3209991455078125,-0.970977783203125,-0.00067138671875
1791049003471220700,8.143220703125,-0.3470306396484375,-0.9594268798828125,0.0529937744140625
1791049003481179000,8.153178955078126,-0.3168182373046875,-0.936920166015625,0.030364990234375
1791049003491137800,8.1631376953125,-0.3137664794921875,-0.9493255615234375,0.014434814453125
1791049003501095400,8.173095458984376,-0.315673828125,-0.945831298828125,0.05303955078125
1791049003511054800,8.183054931640624,-0.336517333984375,-0.9528045654296875,0.0243377685546875
1791049003521012500,8.193012451171874,-0.3540191650390625,-0.9730682373046875,0.032501220703125
1791049003530970600,8.202970703125,-0.322265625,-0.9794769287109375,-0.005157470703125
1791049003540929500,8.212929443359375,-0.326263427734375,-0.9872589111328125,0.036346435546875
1791049003550887700,8.2228876953125,-0.3321685791015625,-0.9593963623046875,-0.0012054443359375
1791049003560845600,8.232845458984375,-0.35968017578125,-0.9531707763671875,0.008392333984375
1791049003570804500,8.242804443359375,-0.352752685546875,-0.947845458984375,0.0266876220703125
1791049003580762600,8.2527626953125,-0.3074493408203125,-0.9545440673828125,0.041900634765625
1791049003590720800,8.262720703125,-0.304931640625,-1.0030670166015625,-0.02130126953125
1791049003600679700,8.2726796875,-0.3183746337890625,-0.97491455078125,0.00006103515625
1791049003610637600,8.282637451171874,-0.3668670654296875,-0.9680938720703125,0.025787353515625
1791049003620596700,8.2925966796875,-0.3715362548828125,-0.961517333984375,-0.009918212890625
1791049003630554600,8.3025546875,-0.37030029296875,-0.9840240478515625,-0.0306854248046875
1791049003640512800,8.3125126953125,-0.35626220703125,-0.9515380859375,0.0128326416015625
1791049003650471700,8.3224716796875,-0.357574462890625,-0.952972412109375,-0.0303497314453125
1791049003660429800,8.332429931640625,-0.354827880859375,-0.999847412109375,-0.0451202392578125
1791049003670387700,8.3423876953125,-0.315277099609375,-0.96978759765625,-0.0273284912109375
1791049003680346600,8.3523466796875,-0.312835693359375,-0.9805755615234375,-0.0430145263671875
1791049003690304800,8.3623046875,-0.3443450927734375,-0.98681640625,-0.0395355224609375
1791049003700262700,8.3722626953125,-0.3531341552734375,-0.990142822265625,-0.0436553955078125
1791049003710221600,8.3822216796875,-0.3363037109375,-0.9833526611328125,-0.02239990234375
1791049003720179500,8.392179443359375,-0.327392578125,-0.940673828125,-0.0276947021484375
1791049003730137600,8.4021376953125,-0.372467041015625,-0.9635162353515625,-0.0401611328125
1791049003740096500,8.412096435546875,-0.34381103515625,-0.9359130859375,-0.0299835205078125
1791049003750054700,8.4220546875,-0.30810546875,-0.9298553466796875,-0.0042572021484375
1791049003760013600,8.432013671875,-0.300079345703125,-0.9522857666015625,-0.0453948974609375
1791049003769971700,8.4419716796875,-0.3290863037109375,-0.9116363525390625,-0.0155487060546875
1791049003779929600,8.4519296875,-0.33935546875,-0.9148712158203125,-0.0380096435546875
1791049003789888500,8.461888427734374,-0.3112640380859375,-0.8964996337890625,-0.017791748046875
1791049003799846700,8.4718466796875,-0.3135986328125,-0.9492950439453125,-0.0403289794921875
1791049003809804800,8.4818046875,-0.3036346435546875,-0.9112396240234375,-0.0076141357421875
1791049003819763700,8.491763671875,-0.3314971923828125,-0.885589599609375,0.000030517578125
1791049003829721600,8.5017216796875,-0.32757568359375,-0.866424560546875,-0.009368896484375
1791049003839679700,8.5116796875,-0.3249664306640625,-0.9212646484375,-0.0079803466796875
1791049003849638700,8.521638671875,-0.2953948974609375,-0.9090728759765625,0.007293701171875
1791049003859596800,8.5315966796875,-0.32861328125,-0.8733062744140625,0.0300445556640625
1791049003869555700,8.5415556640625,-0.3626708984375,-0.889068603515625,-0.0092010498046875
1791049003879513900,8.551513916015624,-0.35113525390625,-0.9184112548828125,0.0069122314453125
1791049003889471500,8.561471435546874,-0.2989654541015625,-0.92413330078125,0.03509521484375
1791049003899430700,8.5714306640625,-0.3236541748046875,-0.91949462890625,0.0231475830078125
1791049003909388500,8.581388427734375,-0.3480682373046875,-0.901702880859375,0.0162353515625
1791049003919346700,8.5913466796875,-0.3539581298828125,-0.9120635986328125,0.01446533203125
1791049003929305600,8.6013056640625,-0.3053741455078125,-0.9177398681640625,0.0249176025390625
1791049003939263500,8.611263427734375,-0.3047332763671875,-0.9010467529296875,0.008056640625
1791049003949221600,8.6212216796875,-0.3479766845703125,-0.9178466796875,0.0079193115234375
1791049003959180500,8.6311806640625,-0.348846435546875,-0.9175872802734375,0.026031494140625
1791049003969138700,8.641138671875,-0.3237457275390625,-0.92279052734375,0.020660400390625
1791049003979097600,8.65109765625,-0.3051300048828125,-0.9501190185546875,0.002166748046875
1791049003989055700,8.6610556640625,-0.323638916015625,-0.95916748046875,0.0055389404296875
1791049003999013600,8.671013671875,-0.3373260498046875,-0.938995361328125,0.0295562744140625
1791049004008972500,8.68097265625,-0.345916748046875,-0.9698028564453125,-0.0109405517578125
1791049004018930700,8.6909306640625,-0.3443145751953125,-0.9351654052734375,-0.035980224609375
1791049004028888600,8.700888671875,-0.37567138671875,-0.952392578125,0.004150390625
1791049004038847700,8.71084765625,-0.3556365966796875,-0.9530181884765625,-0.0149383544921875
1791049004048805600,8.7208056640625,-0.3440704345703125,-0.9749298095703125,-0.0269622802734375
1791049004058763800,8.730763671875,-0.337188720703125,-0.9633636474609375,0.00244140625
1791049004068722700,8.74072265625,-0.3858489990234375,-0.9278411865234375,0.0127105712890625
1791049004078680800,8.750680908203124,-0.3991851806640625,-0.912994384765625,0.015472412109375
1791049004088638500,8.760638427734374,-0.3918304443359375,-0.9613800048828125,-0.01751708984375
1791049004098597600,8.77059765625,-0.34765625,-0.953460693359375,0.0191192626953125
1791049004108555500,8.780555419921875,-0.354248046875,-0.9648895263671875,0.0027618408203125
1791049004118514400,8.790514404296875,-0.385498046875,-0.9393768310546875,-0.023834228515625
1791049004128472600,8.80047265625,-0.409454345703125,-0.958984375,-0.0413055419921875
1791049004138430700,8.8104306640625,-0.36529541015625,-0.9576873779296875,0.010040283203125
1791049004148389600,8.8203896484375,-0.3668670654296875,-0.986846923828125,-0.0250701904296875
1791049004158347500,8.830347412109376,-0.388916015625,-0.9798126220703125,-0.004669189453125
1791049004168305700,8.8403056640625,-0.4203643798828125,-0.965179443359375,-0.01727294921875
1791049004178264600,8.8502646484375,-0.4264068603515625,-0.9560089111328125,0.0135498046875
1791049004188222700,8.86022265625,-0.398681640625,-0.9658966064453125,-0.0077056884765625
1791049004198180600,8.8701806640625,-0.3770751953125,-1.0098724365234375,-0.0449981689453125
1791049004208139800,8.880139892578125,-0.3670196533203125,-0.973876953125,-0.0006866455078125
1791049004218097700,8.89009765625,-0.383514404296875,-0.957489013671875,-0.051300048828125
1791049004228056600,8.900056640625,-0.4183502197265625,-0.95965576171875,-0.0423126220703125
1791049004238014700,8.9100146484375,-0.382598876953125,-0.9949798583984375,-0.047882080078125
1791049004247972600,8.91997265625,-0.356842041015625,-1.0194854736328125,-0.056854248046875
1791049004257931800,8.929931884765624,-0.3597259521484375,-0.9745330810546875,-0.044586181640625
1791049004267890700,8.939890625,-0.3889312744140625,-0.9388427734375,-0.065155029296875
1791049004277848800,8.949848876953125,-0.403900146484375,-0.907257080078125,-0.05328369140625
1791049004287807700,8.959807861328125,-0.3607025146484375,-0.9198760986328125,-0.0093994140625
1791049004297765600,8.969765625,-0.3583831787109375,-0.9547119140625,-0.0425872802734375
1791049004307723800,8.979723876953125,-0.365936279296875,-0.9357147216796875,-0.03778076171875
1791049004317682700,8.9896826171875,-0.3977508544921875,-0.907379150390625,-0.037384033203125
1791049004327640600,8.999640625,-0.402618408203125,-0.92108154296875,-0.0106658935546875
1791049004337599700,9.009599853515626,-0.359283447265625,-0.9671783447265625,-0.0599212646484375
1791049004347557600,9.0195576171875,-0.3217010498046875,-0.9417572021484375,-0.05413818359375
1791049004357515500,9.029515625,-0.342864990234375,-0.905029296875,-0.0165863037109375
1791049004367474400,9.039474365234375,-0.389923095703125,-0.89202880859375,-0.0536346435546875
1791049004377432600,9.0494326171875,-0.39312744140625,-0.8876190185546875,-0.02996826171875
1791049004387390700,9.059390625,-0.358489990234375,-0.894134521484375,-0.044921875
1791049004397349600,9.069349609375,-0.37518310546875,-0.9148101806640625,0.003936767578125
1791049004407307500,9.0793076171875,-0.3913726806640625,-0.8996124267578125,-0.0469512939453125
1791049004417265700,9.089265625,-0.3817901611328125,-0.8781585693359375,-0.0263824462890625
1791049004427224600,9.099224609375,-0.3274688720703125,-0.8909912109375,0.0070343017578125
1791049004437182700,9.1091826171875,-0.299285888671875,-0.91217041015625,0.0001983642578125
1791049004447141600,9.1191416015625,-0.337493896484375,-0.9163970947265625,-0.044708251953125
1791049004457099800,9.129099853515624,-0.3806610107421875,-0.85699462890625,-0.0128326416015625
1791049004467057700,9.1390576171875,-0.39471435546875,-0.849395751953125,0.005035400390625
1791049004477016600,9.1490166015625,-0.36865234375,-0.888916015625,0.00482177734375
1791049004486974700,9.158974609375,-0.3505859375,-0.938751220703125,0.0045928955078125
1791049004496932900,9.168932861328125,-0.3533172607421875,-0.9320220947265625,-0.0162353515625
1791049004506891800,9.178891845703125,-0.374725341796875,-0.8798980712890625,0.0132293701171875
1791049004516849700,9.188849609375,-0.3988037109375,-0.919097900390625,-0.0140380859375
1791049004526807600,9.1988076171875,-0.34124755859375,-0.938446044921875,0.010772705078125
1791049004536766500,9.208766357421876,-0.3260955810546875,-0.9160614013671875,0.0149993896484375
1791049004546724600,9.218724609375,-0.365936279296875,-0.8993988037109375,0.0103912353515625
1791049004556683500,9.22868359375,-0.4244537353515625,-0.919769287109375,0.012298583984375
1791049004566641700,9.2386416015625,-0.3887176513671875,-0.905548095703125,-0.0068817138671875
1791049004576599600,9.248599609375,-0.3478546142578125,-0.9346160888671875,0.01348876953125
1791049004586558500,9.258558349609375,-0.34844970703125,-0.98052978515625,0.01080322265625
1791049004596516600,9.2685166015625,-0.3642425537109375,-0.9226531982421875,0.0064544677734375
1791049004606474800,9.278474853515625,-0.4101409912109375,-0.877685546875,-0.0233154296875
1791049004616433700,9.28843359375,-0.421295166015625,-0.8900299072265625,0.0114288330078125
1791049004626391600,9.2983916015625,-0.407379150390625,-0.9495391845703125,-0.0000457763671875
1791049004636349700,9.308349609375,-0.368194580078125,-0.9779052734375,-0.0345916748046875
1791049004646308600,9.31830859375,-0.3809051513671875,-0.94281005859375,0.011871337890625
1791049004656266800,9.328266845703125,-0.4160308837890625,-0.9534454345703125,-0.0071563720703125
1791049004666225700,9.3382255859375,-0.419525146484375,-0.9830780029296875,-0.00543212890625
1791049004676183800,9.348183837890625,-0.3687286376953125,-0.9456787109375,0.001861572265625
1791049004686141700,9.3581416015625,-0.379425048828125,-0.927947998046875,0.0087432861328125
1791049004696099800,9.368099853515625,-0.4226837158203125,-0.9267730712890625,0.02264404296875
1791049004706057500,9.378057373046875,-0.435882568359375,-0.9518280029296875,-0.004180908203125
1791049004716016600,9.3880166015625,-0.3941192626953125,-0.9374237060546875,0.0138702392578125
1791049004725974500,9.397974609375,-0.38824462890625,-0.9371490478515625,0.004638671875
1791049004735933400,9.407933349609374,-0.4127960205078125,-0.9688873291015625,0.0300140380859375
1791049004745891600,9.4178916015625,-0.4115142822265625,-0.9549713134765625,-0.0114288330078125
1791049004755849500,9.427849365234374,-0.3911285400390625,-0.9482574462890625,-0.002655029296875
1791049004765808600,9.43780859375,-0.3895111083984375,-0.939849853515625,0.0171661376953125
1791049004775766500,9.4477666015625,-0.4149169921875,-0.9552154541015625,0.005859375
1791049004785724700,9.457724609375,-0.3910980224609375,-0.9206390380859375,0.005828857421875
1791049004795683600,9.46768359375,-0.3948211669921875,-0.9183197021484375,-0.0193939208984375
1791049004805641700,9.477641845703126,-0.396392822265625,-0.9391632080078125,0.014373779296875
1791049004815599600,9.487599609375,-0.390045166015625,-0.9601898193359375,-0.0095977783203125
1791049004825558800,9.497558837890624,-0.3595123291015625,-0.95086669921875,-0.02044677734375
1791049004835516700,9.5075166015625,-0.3548736572265625,-0.9303131103515625,-0.0064697265625
1791049004845474800,9.517474853515624,-0.3760528564453125,-0.924530029296875,0.0107879638671875
1791049004855433700,9.527433837890625,-0.37274169921875,-0.9507904052734375,-0.0092620849609375
1791049004865391600,9.5373916015625,-0.361724853515625,-0.8980255126953125,-0.007232666015625
1791049004875350800,9.547350830078125,-0.405120849609375,-0.8859405517578125,-0.001983642578125
1791049004885308700,9.55730859375,-0.429656982421875,-0.917755126953125,0.0005340576171875
1791049004895266600,9.5672666015625,-0.4094085693359375,-0.954010009765625,-0.023284912109375
1791049004905225700,9.577225830078126,-0.3489837646484375,-0.936279296875,-0.024139404296875
1791049004915183600,9.58718359375,-0.36669921875,-0.9139862060546875,-0.0367279052734375
1791049004925141500,9.5971416015625,-0.3840179443359375,-0.9562225341796875,-0.007171630859375
1791049004935100700,9.6071005859375,-0.3511505126953125,-1.002960205078125,-0.0401458740234375
1791049004945058600,9.61705859375,-0.28118896484375,-0.9397430419921875,-0.0087890625
1791049004955016700,9.6270166015625,-0.3397979736328125,-0.919921875,-0.02105712890625
1791049004964975600,9.6369755859375,-0.4053192138671875,-0.932342529296875,0.01953125
1791049004974933500,9.64693359375,-0.406982421875,-0.9203643798828125,-0.006591796875
1791049004984892700,9.656892578125,-0.3426361083984375,-0.965118408203125,-0.03973388671875
1791049004994851600,9.6668515625,-0.297576904296875,-0.941162109375,0.0187835693359375
1791049005004809700,9.676809814453126,-0.349365234375,-1.00506591796875,-0.0512542724609375
1791049005014768600,9.6867685546875,-0.3662872314453125,-0.9523773193359375,-0.0226287841796875
1791049005024726500,9.6967265625,-0.365570068359375,-0.9463348388671875,-0.072174072265625
1791049005034684700,9.7066845703125,-0.3284454345703125,-0.9454193115234375,0.0170440673828125
1791049005044643600,9.7166435546875,-0.312255859375,-0.9855499267578125,-0.0038604736328125
1791049005054601700,9.726601806640625,-0.3281097412109375,-0.960906982421875,-0.0050506591796875
1791049005064559600,9.7365595703125,-0.365631103515625,-0.9186553955078125,0.000732421875
1791049005074518800,9.746518798828125,-0.389617919921875,-0.937835693359375,0.0045623779296875
1791049005084476700,9.7564765625,-0.3311920166015625,-0.9615325927734375,0.0153656005859375
1791049005094434800,9.766434814453126,-0.2813568115234375,-0.989532470703125,-0.0128021240234375
1791049005104393700,9.776393798828124,-0.2879791259765625,-0.9405670166015625,-0.02020263671875
1791049005114351900,9.786351806640624,-0.358123779296875,-0.92999267578125,-0.0004730224609375
1791049005124310800,9.796310791015625,-0.38116455078125,-0.9276275634765625,-0.0000152587890625
1791049005134268700,9.8062685546875,-0.346710205078125,-0.9284820556640625,-0.012359619140625
1791049005144226600,9.8162265625,-0.2982025146484375,-0.94140625,-0.015777587890625
1791049005154185500,9.826185546875,-0.3155670166015625,-0.9544830322265625,0.02618408203125
1791049005164143600,9.8361435546875,-0.35235595703125,-0.975433349609375,0.001251220703125
1791049005174101500,9.8461015625,-0.3498077392578125,-0.948272705078125,-0.0213470458984375
1791049005184060700,9.856060791015626,-0.3435516357421875,-0.9481658935546875,-0.0285797119140625
1791049005194018600,9.8660185546875,-0.3274993896484375,-0.9705810546875,0.0085296630859375
1791049005203976700,9.875976806640624,-0.312255859375,-0.990081787109375,-0.0093841552734375
1791049005213935600,9.885935546875,-0.306060791015625,-0.940887451171875,-0.012847900390625
1791049005223893800,9.895893798828125,-0.3390045166015625,-0.9241485595703125,-0.0319671630859375
1791049005233852700,9.905852783203125,-0.3542022705078125,-0.928131103515625,0.0405120849609375
1791049005243810600,9.915810546875,-0.32440185546875,-0.955291748046875,0.0002899169921875
1791049005253768700,9.925768798828125,-0.28509521484375,-0.95269775390625,0.00701904296875
1791049005263727600,9.9357275390625,-0.3040771484375,-0.91552734375,-0.00848388671875
1791049005273685800,9.945685791015626,-0.3501739501953125,-0.9518890380859375,0.042022705078125
1791049005283643600,9.9556435546875,-0.32000732421875,-0.977294921875,-0.00970458984375
1791049005293602800,9.965602783203124,-0.2735137939453125,-0.968658447265625,-0.010772705078125
1791049005303560700,9.975560791015624,-0.2694549560546875,-0.9542236328125,0.012481689453125
1791049005313518800,9.985518798828124,-0.3168182373046875,-0.9290924072265625,0.0123748779296875
1791049005323477800,9.995477783203125,-0.343048095703125,-0.9224090576171875,0.012908935546875
1791049005333435600,10.005435546875,-0.3214263916015625,-0.916748046875,0.004425048828125
1791049005343394800,10.015394775390625,-0.3284759521484375,-0.9595794677734375,-0.0141448974609375
1791049005353352700,10.025352783203125,-0.3009033203125,-0.96795654296875,0.0355377197265625
1791049005363310600,10.035310546875,-0.3029937744140625,-1.0050201416015625,-0.0095977783203125
1791049005373269800,10.045269775390626,-0.2787017822265625,-0.935333251953125,0.0010833740234375
1791049005383227600,10.0552275390625,-0.313995361328125,-0.924896240234375,-0.011199951171875
1791049005393185500,10.065185546875,-0.328582763671875,-0.9301300048828125,0.0357666015625
1791049005403144700,10.075144775390624,-0.2949066162109375,-0.9365997314453125,0.0307159423828125
1791049005413102600,10.0851025390625,-0.28570556640625,-0.9271087646484375,-0.0041961669921875
1791049005423060700,10.095060791015625,-0.313934326171875,-0.922821044921875,0.01275634765625
1791049005433019600,10.10501953125,-0.3415374755859375,-0.948760986328125,0.038787841796875
1791049005442977800,10.114977783203125,-0.30963134765625,-0.95440673828125,0.0083160400390625
1791049005452936700,10.124936767578125,-0.297271728515625,-0.940582275390625,0.009613037109375
1791049005462894600,10.13489453125,-0.3207855224609375,-0.94879150390625,0.0046844482421875
1791049005472852700,10.144852783203126,-0.335418701171875,-0.9457855224609375,0.0416107177734375
1791049005482811600,10.154811767578124,-0.2951507568359375,-0.9372711181640625,0.0028533935546875
1791049005492769800,10.164769775390624,-0.2870025634765625,-0.9315185546875,0.0129852294921875
1791049005502727700,10.174727783203124,-0.30657958984375,-0.94091796875,0.00689697265625
1791049005512686800,10.184686767578125,-0.3278961181640625,-0.937347412109375,0.0528564453125
1791049005522644700,10.194644775390625,-0.31097412109375,-0.914520263671875,0.0102386474609375
1791049005532603000,10.204602783203125,-0.3153839111328125,-0.9334869384765625,0.0103759765625
1791049005542561800,10.214561767578125,-0.32196044921875,-0.9210052490234375,0.01263427734375
1791049005552519700,10.224519775390625,-0.331451416015625,-0.9262847900390625,0.0513763427734375
1791049005562478800,10.234478759765626,-0.3153076171875,-0.941925048828125,0.02032470703125
1791049005572436500,10.2444365234375,-0.31561279296875,-0.9495086669921875,-0.0044097900390625
1791049005582394600,10.25439453125,-0.3184661865234375,-0.933349609375,0.0284271240234375
1791049005592353500,10.264353515625,-0.3331756591796875,-0.9310302734375,0.040283203125
1791049005602311700,10.274311767578125,-0.3404388427734375,-0.9576416015625,0.0274658203125
1791049005612269600,10.28426953125,-0.3365325927734375,-0.929595947265625,0.0308837890625
1791049005622228700,10.294228759765625,-0.3694000244140625,-0.9444427490234375,-0.006011962890625
1791049005632186600,10.3041865234375,-0.3434600830078125,-0.94158935546875,0.0537567138671875
1791049005642145500,10.3141455078125,-0.327301025390625,-0.9805908203125,-0.0050201416015625
1791049005652103700,10.324103759765626,-0.2990264892578125,-0.945037841796875,0.034088134765625
1791049005662061600,10.3340615234375,-0.3537139892578125,-0.939849853515625,-0.014617919921875
1791049005672020700,10.344020751953124,-0.3681640625,-0.9160003662109375,0.0433197021484375
1791049005681978600,10.353978515625,-0.346466064453125,-0.9430389404296875,0.01104736328125
1791049005691936800,10.363936767578124,-0.3243560791015625,-0.9616851806640625,0.0216217041015625
1791049005701895700,10.373895751953125,-0.331939697265625,-0.9311981201171875,0.02056884765625
1791049005711853800,10.383853759765625,-0.3656005859375,-0.9505462646484375,0.0558319091796875
1791049005721811700,10.393811767578125,-0.3521881103515625,-0.9156494140625,0.0098724365234375
1791049005731771000,10.40377099609375,-0.329010009765625,-0.947509765625,0.0312347412109375
1791049005741728800,10.413728759765625,-0.3120269775390625,-0.960479736328125,0.00909423828125
1791049005751687700,10.423687744140626,-0.336639404296875,-0.9854888916015625,0.029510498046875
1791049005761645800,10.433645751953126,-0.3341064453125,-0.9262542724609375,0.0178375244140625
1791049005771603700,10.443603759765624,-0.3642425537109375,-0.930755615234375,0.0043792724609375
1791049005781563000,10.45356298828125,-0.346954345703125,-0.9261016845703125,0.0244903564453125
1791049005791520500,10.4635205078125,-0.3365631103515625,-0.9720916748046875,0.0376739501953125
1791049005801478700,10.473478759765625,-0.3314208984375,-0.9492034912109375,0.029052734375
1791049005811437600,10.4834375,-0.3410797119140625,-0.9565277099609375,-0.007110595703125
1791049005821395700,10.493395751953125,-0.3610687255859375,-0.9420013427734375,0.0220794677734375
1791049005831353600,10.503353515625,-0.3534088134765625,-0.9600830078125,0.002716064453125
1791049005841312800,10.513312744140626,-0.3405303955078125,-0.9523468017578125,-0.0040283203125
1791049005851270700,10.523270751953126,-0.3565673828125,-0.944580078125,-0.0300445556640625
1791049005861229600,10.5332294921875,-0.3862152099609375,-0.9487457275390625,0.007965087890625
1791049005871187700,10.543187744140624,-0.386138916015625,-0.9650421142578125,-0.0017547607421875
1791049005881145600,10.5531455078125,-0.3633880615234375,-0.968017578125,-0.00787353515625
1791049005891104800,10.563104736328125,-0.3674468994140625,-0.961944580078125,-0.0294952392578125
1791049005901062700,10.573062744140625,-0.3905029296875,-0.9552001953125,-0.00213623046875
1791049005911020800,10.583020751953125,-0.39886474609375,-0.9608001708984375,-0.003753662109375
1791049005920979700,10.592979736328125,-0.3763885498046875,-0.9601898193359375,-0.0297393798828125
1791049005930937900,10.602937744140625,-0.3673248291015625,-0.9661865234375,-0.033416748046875
1791049005940895700,10.612895751953126,-0.38623046875,-0.964263916015625,-0.0045623779296875
1791049005950854700,10.622854736328126,-0.3981475830078125,-0.9512176513671875,-0.011627197265625
1791049005960812500,10.6328125,-0.388275146484375,-0.9526214599609375,-0.02191162109375
1791049005970771700,10.642771728515624,-0.3937225341796875,-0.9457855224609375,-0.034088134765625
1791049005980729600,10.6527294921875,-0.4133148193359375,-0.9487762451171875,0.0041046142578125
1791049005990687500,10.6626875,-0.4204254150390625,-0.9434967041015625,-0.0030975341796875
1791049006000646700,10.672646728515625,-0.410125732421875,-0.9288177490234375,-0.0215606689453125
1791049006010604500,10.6826044921875,-0.419036865234375,-0.931793212890625,-0.02069091796875
1791049006020562700,10.692562744140625,-0.414306640625,-0.9342498779296875,0.0074310302734375
1791049006030521600,10.702521484375,-0.4081573486328125,-0.953094482421875,-0.0278472900390625
1791049006040479700,10.712479736328126,-0.3726959228515625,-0.934722900390625,-0.01806640625
1791049006050438700,10.722438720703124,-0.3879547119140625,-0.91943359375,-0.004425048828125
1791049006060396500,10.732396484375,-0.3965301513671875,-0.9164886474609375,0.0135040283203125
1791049006070354700,10.742354736328124,-0.397613525390625,-0.907012939453125,0.002197265625
1791049006080313600,10.752313720703125,-0.379852294921875,-0.8787384033203125,0.0085296630859375
1791049006090271700,10.762271728515625,-0.3860321044921875,-0.8709716796875,0.0255584716796875
1791049006100229600,10.772229736328125,-0.3908233642578125,-0.909698486328125,0.0184173583984375
1791049006110188800,10.782188720703125,-0.38165283203125,-0.9185943603515625,0.002777099609375
1791049006120146700,10.792146728515625,-0.3718414306640625,-0.9281463623046875,-0.0087127685546875
1791049006130104800,10.802104736328126,-0.3980560302734375,-0.9036407470703125,0.0142822265625
1791049006140063700,10.812063720703126,-0.4167633056640625,-0.92840576171875,-0.0085296630859375
1791049006150022000,10.82202197265625,-0.4072418212890625,-0.9374237060546875,0.0069427490234375
1791049006159980800,10.831980712890624,-0.3796844482421875,-0.925079345703125,-0.003326416015625
1791049006169938700,10.841938720703125,-0.399932861328125,-0.90765380859375,0.0197601318359375
1791049006179896600,10.851896484375,-0.42449951171875,-0.9094696044921875,-0.0010528564453125
1791049006189855500,10.86185546875,-0.420989990234375,-0.90484619140625,0.0160064697265625
1791049006199813600,10.871813720703125,-0.405548095703125,-0.9120025634765625,-0.010467529296875
1791049006209771500,10.881771484375,-0.4087677001953125,-0.929931640625,0.0241546630859375
1791049006219730700,10.891730712890626,-0.4147796630859375,-0.9243011474609375,0.0284576416015625
1791049006229688600,10.9016884765625,-0.420654296875,-0.94256591796875,0.002197265625
1791049006239646700,10.911646728515626,-0.39361572265625,-0.8973846435546875,-0.00244140625
1791049006249605600,10.921605712890624,-0.4134063720703125,-0.936248779296875,0.034637451171875
1791049006259563800,10.931563720703124,-0.4017181396484375,-0.92327880859375,0.03167724609375
1791049006269522700,10.941522705078125,-0.407440185546875,-0.9229888916015625,0.0081787109375
1791049006279480600,10.95148046875,-0.4117889404296875,-0.88836669921875,0.032257080078125
1791049006289438700,10.961438720703125,-0.4372406005859375,-0.9109649658203125,0.0476531982421875
1791049006299397600,10.971397705078125,-0.4301910400390625,-0.922454833984375,0.0242767333984375
1791049006309355800,10.981355712890625,-0.396484375,-0.92987060546875,0.0191192626953125
1791049006319313400,10.9913134765625,-0.398681640625,-0.9007110595703125,0.0321044921875
1791049006329272800,11.00127294921875,-0.40838623046875,-0.911834716796875,0.0337371826171875
1791049006339230500,11.01123046875,-0.4183349609375,-0.9073638916015625,0.02130126953125
1791049006349189600,11.021189697265624,-0.3902130126953125,-0.8862457275390625,0.01129150390625
1791049006359147500,11.0311474609375,-0.4022216796875,-0.890899658203125,0.0119781494140625
1791049006369105700,11.041105712890625,-0.4166412353515625,-0.9171600341796875,0.0548095703125
1791049006379064600,11.051064697265625,-0.3981170654296875,-0.92010498046875,0.0151519775390625
1791049006389022500,11.0610224609375,-0.4044036865234375,-0.90887451171875,0.0086669921875
1791049006398980600,11.070980712890625,-0.4363250732421875,-0.9097137451171875,0.044464111328125
1791049006408939500,11.080939453125,-0.4590606689453125,-0.94403076171875,0.037445068359375
1791049006418897700,11.090897705078126,-0.4325103759765625,-0.922027587890625,0.028533935546875
1791049006428855600,11.10085546875,-0.4231109619140625,-0.9221343994140625,0.021270751953125
1791049006438814700,11.110814697265624,-0.4529876708984375,-0.9379425048828125,0.0268096923828125
1791049006448772600,11.120772705078124,-0.4476776123046875,-0.957489013671875,0.0135650634765625
1791049006458731800,11.130731689453125,-0.4249114990234375,-0.923187255859375,-0.0174407958984375
1791049006468689700,11.140689697265625,-0.4232635498046875,-0.9466094970703125,0.0107421875
1791049006478647800,11.150647705078125,-0.4342803955078125,-0.92926025390625,0.0444488525390625
1791049006488606700,11.160606689453125,-0.430267333984375,-0.96112060546875,-0.0162506103515625
1791049006498564600,11.170564697265625,-0.4002532958984375,-0.8997650146484375,0.01959228515625
1791049006508522800,11.180522705078126,-0.4442138671875,-0.91021728515625,-0.01397705078125
1791049006518481700,11.190481689453126,-0.43218994140625,-0.9239349365234375,0.026580810546875
1791049006528439800,11.200439697265624,-0.4056854248046875,-0.9196624755859375,-0.0030059814453125
1791049006538397400,11.2103974609375,-0.3966064453125,-0.9262847900390625,-0.005279541015625
1791049006548356600,11.220356689453125,-0.4120025634765625,-0.88775634765625,-0.01202392578125
1791049006558314500,11.230314453125,-0.431427001953125,-0.9230804443359375,0.00433349609375
1791049006568273700,11.240273681640625,-0.38360595703125,-0.9288330078125,-0.0007476806640625
1791049006578231600,11.2502314453125,-0.3541259765625,-0.956024169921875,-0.0079803466796875
1791049006588189700,11.260189697265625,-0.374359130859375,-0.91558837890625,0.0005950927734375
1791049006598148600,11.270148681640626,-0.4181365966796875,-0.89739990234375,0.0138702392578125
1791049006608106500,11.2801064453125,-0.4033050537109375,-0.9241180419921875,-0.002410888671875
1791049006618064600,11.290064697265626,-0.3326873779296875,-0.944366455078125,-0.0099639892578125
1791049006628023600,11.3000234375,-0.3211822509765625,-0.971221923828125,0.00836181640625
1791049006637981700,11.309981689453124,-0.348907470703125,-0.938720703125,0.0023040771484375
1791049006647940600,11.319940673828125,-0.3843994140625,-0.9451446533203125,-0.0161285400390625
1791049006657898800,11.329898681640625,-0.3606719970703125,-0.960906982421875,-0.035858154296875
1791049006667856600,11.339856689453125,-0.324127197265625,-0.9503021240234375,-0.0088043212890625
1791049006677815600,11.349815673828125,-0.327880859375,-0.978973388671875,-0.023712158203125
1791049006687773700,11.359773681640625,-0.3544158935546875,-0.948394775390625,-0.0270233154296875
1791049006697731800,11.36973193359375,-0.363922119140625,-0.9554901123046875,-0.0373992919921875
1791049006707690800,11.379690673828126,-0.3254852294921875,-0.941131591796875,-0.0145111083984375
1791049006717648600,11.389648681640624,-0.3169097900390625,-0.9824066162109375,-0.032257080078125
1791049006727606500,11.3996064453125,-0.3056793212890625,-0.961273193359375,-0.0331268310546875
1791049006737565700,11.409565673828125,-0.3197479248046875,-0.9525146484375,-0.046722412109375
1791049006747523600,11.419523681640625,-0.3263092041015625,-0.9534454345703125,-0.015380859375
1791049006757482500,11.429482421875,-0.317596435546875,-0.9635162353515625,-0.028411865234375
1791049006767440600,11.439440673828125,-0.3070068359375,-0.9527740478515625,-0.0438690185546875
1791049006777398500,11.4493984375,-0.33087158203125,-0.9403076171875,-0.042083740234375
1791049006787357700,11.459357666015626,-0.3418731689453125,-0.9353790283203125,-0.0092620849609375
1791049006797315600,11.469315673828126,-0.3260345458984375,-0.9681243896484375,-0.049041748046875
1791049006807273700,11.479273681640626,-0.280792236328125,-0.96014404296875,-0.0214996337890625
1791049006817232600,11.489232666015624,-0.295562744140625,-0.957855224609375,-0.0404205322265625
1791049006827190500,11.4991904296875,-0.3144378662109375,-0.96612548828125,-0.0164794921875
1791049006837148700,11.509148681640625,-0.3263397216796875,-0.94891357421875,-0.02374267578125
1791049006847107600,11.519107666015625,-0.3228912353515625,-0.9499359130859375,-0.0335540771484375
1791049006857065700,11.529065673828125,-0.328399658203125,-0.917236328125,-0.0240936279296875
1791049006867024600,11.539024658203125,-0.3475341796875,-0.9604949951171875,-0.0075836181640625
1791049006876982800,11.548982666015625,-0.3215179443359375,-0.944488525390625,-0.0101318359375
1791049006886940700,11.558940673828126,-0.30120849609375,-0.9663848876953125,-0.0338592529296875
1791049006896899600,11.568899658203126,-0.293701171875,-0.9520111083984375,-0.000946044921875
1791049006906857700,11.578857666015624,-0.3102264404296875,-0.984588623046875,-0.01373291015625
1791049006916816000,11.58881591796875,-0.304290771484375,-0.963165283203125,-0.0084991455078125
1791049006926774800,11.59877490234375,-0.3069915771484375,-0.925201416015625,-0.0133056640625
1791049006936732400,11.608732421875,-0.3383941650390625,-0.922088623046875,0.0288543701171875
1791049006946690600,11.618690673828125,-0.3292388916015625,-0.9282379150390625,0.013763427734375
1791049006956649500,11.6286494140625,-0.316558837890625,-0.9423980712890625,0.02777099609375
1791049006966607600,11.638607666015625,-0.297576904296875,-0.9270782470703125,0.008880615234375
1791049006976566500,11.64856640625,-0.32672119140625,-0.9379119873046875,0.0273895263671875
1791049006986524700,11.658524658203126,-0.32403564453125,-0.9115447998046875,0.040557861328125
1791049006996482600,11.668482666015626,-0.316162109375,-0.943511962890625,0.00189208984375
1791049007006441500,11.67844140625,-0.3014373779296875,-0.931365966796875,0.0182647705078125
1791049007016399600,11.688399658203124,-0.3359375,-0.922210693359375,0.0301055908203125
1791049007026357800,11.698357666015625,-0.3578033447265625,-0.925323486328125,0.0302734375
1791049007036316700,11.708316650390625,-0.324127197265625,-0.941436767578125,0.0277252197265625
1791049007046274600,11.718274658203125,-0.32843017578125,-1.0072479248046875,0.044158935546875
1791049007056233700,11.728233642578125,-0.3407440185546875,-0.9999847412109375,0.038360595703125
1791049007066191600,11.738191650390625,-0.4125213623046875,-0.9810943603515625,0.0499114990234375
1791049007076149800,11.748149658203126,-0.449951171875,-0.9739990234375,0.011322021484375
1791049007086108700,11.758108642578126,-0.4659271240234375,-1.0363311767578125,0.0530853271484375
1791049007096066800,11.76806689453125,-0.4473876953125,-1.024749755859375,0.085784912109375
1791049007106024700,11.778024658203124,-0.48291015625,-1.0640716552734375,0.0806884765625
1791049007115983600,11.787983642578125,-0.5041656494140625,-1.08050537109375,0.0745697021484375
1791049007125941800,11.797941650390625,-0.5218048095703125,-1.0571746826171875,0.08074951171875
1791049007135899600,11.807899658203125,-0.4967193603515625,-1.098175048828125,0.05633544921875
1791049007145858600,11.817858642578125,-0.4722137451171875,-1.1054229736328125,-0.0024566650390625
1791049007155816400,11.82781640625,-0.4664306640625,-1.10650634765625,-0.0110321044921875
1791049007165775600,11.837775634765626,-0.482940673828125,-1.088531494140625,-0.009185791015625
1791049007175733500,11.8477333984375,-0.4969940185546875,-1.1008148193359375,-0.0046539306640625
1791049007185691600,11.857691650390626,-0.4754486083984375,-1.1032867431640625,0.0197601318359375
1791049007195650600,11.867650634765624,-0.4632720947265625,-1.0866851806640625,0.0019989013671875
1791049007205608700,11.877608642578124,-0.467041015625,-1.07073974609375,0.0313568115234375
1791049007215566600,11.887566650390625,-0.46136474609375,-1.075164794921875,0.002777099609375
1791049007225525500,11.897525390625,-0.422607421875,-1.0234222412109375,-0.03021240234375
1791049007235483600,11.907483642578125,-0.38665771484375,-0.98590087890625,-0.0294342041015625
1791049007245442600,11.917442626953125,-0.3831939697265625,-0.99615478515625,-0.0319671630859375
1791049007255400700,11.927400634765625,-0.35028076171875,-0.986419677734375,-0.0432586669921875
1791049007265358600,11.937358642578126,-0.3138275146484375,-0.9582366943359375,-0.04437255859375
1791049007275317000,11.94731689453125,-0.3183441162109375,-0.9141387939453125,-0.0363616943359375
1791049007285275000,11.95727490234375,-0.3153228759765625,-0.9134368896484375,-0.0180511474609375
1791049007295233000,11.96723291015625,-0.28192138671875,-0.9002227783203125,-0.0442352294921875
1791049007305192000,11.97719189453125,-0.2447662353515625,-0.86590576171875,-0.0153350830078125
1791049007315150000,11.987150146484375,-0.2445831298828125,-0.8460235595703125,-0.047149658203125
1791049007325108000,11.99710791015625,-0.2445831298828125,-0.8531036376953125,-0.0290679931640625
1791049007335067100,12.007067138671875,-0.222259521484375,-0.8290252685546875,-0.0543975830078125
1791049007345024800,12.017024658203125,-0.20111083984375,-0.8179168701171875,-0.0574798583984375
1791049007354984000,12.02698388671875,-0.2041473388671875,-0.818115234375,-0.0587310791015625
1791049007364941800,12.03694189453125,-0.1960296630859375,-0.8267669677734375,-0.046783447265625
1791049007374900000,12.04689990234375,-0.18280029296875,-0.8104248046875,-0.057647705078125
1791049007384859000,12.05685888671875,-0.185577392578125,-0.7933197021484375,-0.0550689697265625
1791049007394816800,12.066816650390624,-0.1807098388671875,-0.7954254150390625,-0.023956298828125
1791049007404775000,12.07677490234375,-0.1523590087890625,-0.8003387451171875,-0.011749267578125
1791049007414733800,12.08673388671875,-0.135162353515625,-0.7865753173828125,-0.01324462890625
1791049007424692000,12.09669189453125,-0.13787841796875,-0.7703094482421875,0.009674072265625
1791049007434649900,12.10664990234375,-0.1567840576171875,-0.7600860595703125,0.029937744140625
1791049007444609000,12.116609130859375,-0.153076171875,-0.7950286865234375,0.0188751220703125
1791049007454567000,12.12656689453125,-0.143402099609375,-0.77874755859375,-0.0091705322265625
1791049007464525800,12.13652587890625,-0.18145751953125,-0.7711029052734375,-0.016876220703125
1791049007474484000,12.14648388671875,-0.2017059326171875,-0.803466796875,-0.0370025634765625
1791049007484442000,12.156442138671874,-0.187408447265625,-0.8331298828125,-0.0618438720703125
1791049007494401000,12.166401123046874,-0.1462860107421875,-0.82171630859375,-0.0692596435546875
1791049007504359000,12.17635888671875,-0.17156982421875,-0.8132476806640625,-0.05108642578125
1791049007514317000,12.186317138671875,-0.1877288818359375,-0.8067169189453125,-0.0454559326171875
1791049007524276000,12.19627587890625,-0.187469482421875,-0.8445587158203125,-0.0701141357421875
1791049007534234000,12.206234130859375,-0.1587677001953125,-0.825897216796875,-0.051605224609375
1791049007544193000,12.216193115234375,-0.185516357421875,-0.82489013671875,-0.057159423828125
1791049007554151000,12.22615087890625,-0.20794677734375,-0.8490447998046875,-0.0413970947265625
1791049007564108800,12.23610888671875,-0.190643310546875,-0.858489990234375,-0.0683441162109375
1791049007574067700,12.246067626953124,-0.1537322998046875,-0.8467864990234375,-0.0457916259765625
1791049007584025900,12.25602587890625,-0.1680755615234375,-0.84332275390625,-0.039459228515625
1791049007593984000,12.26598388671875,-0.1949462890625,-0.8754425048828125,-0.0447235107421875
1791049007603943000,12.27594287109375,-0.172515869140625,-0.878753662109375,-0.0377044677734375
1791049007613900800,12.28590087890625,-0.1496429443359375,-0.8631134033203125,-0.0196533203125
1791049007623859000,12.29585888671875,-0.183502197265625,-0.852691650390625,0.00640869140625
1791049007633817900,12.30581787109375,-0.2119903564453125,-0.8986358642578125,-0.0126800537109375
1791049007643776000,12.31577587890625,-0.201416015625,-0.896331787109375,0.009857177734375
1791049007653735000,12.32573486328125,-0.17987060546875,-0.897064208984375,0.019775390625
1791049007663693000,12.335693115234376,-0.2008209228515625,-0.90130615234375,0.0402679443359375
1791049007673651000,12.34565087890625,-0.23773193359375,-0.947967529296875,0.036468505859375
1791049007683609900,12.35560986328125,-0.2318572998046875,-0.9436798095703125,0.036773681640625
1791049007693568000,12.365568115234375,-0.234649658203125,-0.9534912109375,0.07293701171875
1791049007703526100,12.375526123046875,-0.2748565673828125,-0.9457244873046875,0.0607757568359375
1791049007713485000,12.385485107421875,-0.31793212890625,-0.9477386474609375,0.0687713623046875
1791049007723443000,12.39544287109375,-0.3057098388671875,-0.9448394775390625,0.101654052734375
1791049007733402000,12.405402099609375,-0.3167724609375,-0.983642578125,0.1535186767578125
1791049007743360000,12.415360107421876,-0.330078125,-1.061187744140625,0.17181396484375
1791049007753318000,12.42531787109375,-0.3468475341796875,-1.017822265625,0.1540374755859375
1791049007763277000,12.435277099609374,-0.394866943359375,-1.0181427001953125,0.15777587890625
1791049007773235000,12.44523486328125,-0.4142608642578125,-1.0337677001953125,0.172607421875
1791049007783192800,12.45519287109375,-0.44952392578125,-1.0561676025390625,0.1106719970703125
1791049007793151700,12.46515185546875,-0.4300537109375,-1.1094207763671875,0.1224822998046875
1791049007803110000,12.47510986328125,-0.4235382080078125,-1.147369384765625,0.0826568603515625
1791049007813068000,12.485068115234375,-0.4466400146484375,-1.14764404296875,0.119659423828125
1791049007823027000,12.49502685546875,-0.469146728515625,-1.1502685546875,0.0865478515625
1791049007832984800,12.50498486328125,-0.4849853515625,-1.137054443359375,0.1133270263671875
1791049007842944000,12.514944091796876,-0.476165771484375,-1.1417236328125,0.133697509765625
1791049007852902000,12.52490185546875,-0.498565673828125,-1.169952392578125,0.1024932861328125
1791049007862860000,12.534860107421874,-0.503387451171875,-1.194732666015625,0.1109161376953125
1791049007872819000,12.54481884765625,-0.494598388671875,-1.207244873046875,0.0682220458984375
1791049007882777000,12.554777099609375,-0.46905517578125,-1.1558990478515625,0.0548248291015625
1791049007892735000,12.56473486328125,-0.4964752197265625,-1.1732940673828125,0.0266571044921875
1791049007902694000,12.57469384765625,-0.4786529541015625,-1.155364990234375,-0.0060882568359375
1791049007912652000,12.584652099609375,-0.4718017578125,-1.15960693359375,-0.000335693359375
1791049007922611000,12.59461083984375,-0.4380645751953125,-1.10443115234375,0.0545654296875
1791049007932569000,12.604569091796876,-0.4623870849609375,-1.1220245361328125,-0.020660400390625
1791049007942526700,12.614526611328126,-0.4188385009765625,-1.0648651123046875,-0.0066680908203125
1791049007952486100,12.624486083984374,-0.4095458984375,-1.0729827880859375,-0.03778076171875
1791049007962443800,12.63444384765625,-0.3726654052734375,-1.0316314697265625,0.01153564453125
1791049007972402000,12.64440185546875,-0.385467529296875,-1.030426025390625,-0.03948974609375
1791049007982360800,12.65436083984375,-0.349151611328125,-0.964508056640625,-0.0428619384765625
1791049007992319000,12.664319091796875,-0.3444976806640625,-0.97833251953125,-0.0487213134765625
1791049008002276900,12.67427685546875,-0.3443756103515625,-0.9938812255859375,-0.04107666015625
1791049008012235800,12.68423583984375,-0.3517608642578125,-0.9564056396484375,-0.051177978515625
1791049008022194000,12.69419384765625,-0.3858795166015625,-0.930999755859375,-0.0203399658203125
1791049008032152800,12.70415283203125,-0.3594818115234375,-0.938812255859375,0.006591796875
1791049008042111000,12.714111083984376,-0.3120574951171875,-0.991180419921875,-0.0002899169921875
1791049008052068900,12.72406884765625,-0.2700347900390625,-0.9624176025390625,0.020599365234375
1791049008062028000,12.734028076171874,-0.3283233642578125,-0.9428253173828125,0.038055419921875
1791049008071986000,12.74398583984375,-0.373992919921875,-0.9506988525390625,0.045074462890625
1791049008081944000,12.753944091796875,-0.345977783203125,-0.97723388671875,0.0060882568359375
1791049008091903000,12.763903076171875,-0.288970947265625,-0.992767333984375,0.014434814453125
