time,seconds_elapsed,z,y,x
1791048995390029600,0.062029541015625,0.24106530287414787,-0.11253624585568904,-0.08236063209418207
1791048995399987700,0.07198779296875,0.19591127915680406,0.040328503257036206,-0.09914746144516393
1791048995409946600,0.081946533203125,0.1460533155322075,-0.08959259264171122,0.15367601069668307
1791048995419904800,0.09190478515625,0.258197054938972,-0.26843407905399796,-0.005761997592821717
1791048995429862700,0.101862548828125,0.34656185935139655,-0.1852665510237217,-0.12167182980114594
1791048995439820800,0.11182080078125,0.24833295578956602,0.10554770214259623,-0.024494608983024954
1791048995449779700,0.12177978515625,0.028842355863749978,-0.06898644246459007,0.17298654983900486
1791048995459737900,0.13173779296875,0.2806298360213637,-0.3172229521423578,-0.06677934260806069
1791048995469695500,0.141695556640625,0.3960045201733708,-0.16719488776028155,-0.19742603110130874
1791048995479655000,0.151655029296875,0.2415069091618061,0.14182371513843536,0.016303100954648108
1791048995489612500,0.161612548828125,0.01763210280239582,-0.22398060482144355,0.12169974072137847
1791048995499570700,0.17157080078125,0.261871067276597,-0.2609592131286859,-0.09262401449317112
1791048995509528600,0.181528564453125,0.38547932676672936,-0.13951426915228365,-0.2359195557498373
1791048995519487700,0.19148779296875,0.16769553075879812,0.10894728145301341,0.06361044851467013
1791048995529445600,0.201445556640625,0.028924481189250943,-0.30238603301644323,0.05666861175382509
1791048995539403800,0.21140380859375,0.2840469509884715,-0.22198329352438448,-0.10768414791570975
1791048995549362700,0.22136279296875,0.3514823646187782,-0.056123453760147095,-0.24642067416114732
1791048995559320600,0.231320556640625,0.09359013784527778,0.0035521395236253737,0.08198323188284412
1791048995569278700,0.24127880859375,0.014110066156089306,-0.18468728983104227,-0.016681414481438697
1791048995579236900,0.25123681640625,0.306717047958076,-0.09423077383637428,-0.16497810675995422
1791048995589195800,0.26119580078125,0.2449991351917386,-0.13307108436226844,-0.32501959736794234
1791048995599153700,0.271153564453125,0.2586392457485199,-0.07666472200751304,0.2370938419599086
1791048995609111800,0.28111181640625,0.34245062464028597,-0.6862462341487408,-0.11430429670782759
1791048995619070700,0.29107080078125,0.7733610385000705,-0.5613870978146791,-0.06784678917648271
1791048995629028900,0.30102880859375,0.7613315780103206,-0.3318775004386902,-0.10367872993294149
1791048995638986500,0.310986572265625,0.4433586842834949,-0.3536825050115585,0.1584386767875403
1791048995648944600,0.320944580078125,0.4660281967312097,-0.42354280770123004,0.005807973892707377
1791048995658903600,0.330903564453125,0.6012722412183881,-0.23893735093474386,-0.2006579256946221
1791048995668861700,0.34086181640625,0.5598173642799258,-0.03863046716749668,-0.08604438037453219
1791048995678819600,0.350819580078125,0.26672610609233377,-0.38646307710707184,0.09080295481216162
1791048995688778800,0.36077880859375,0.46607145135104655,-0.44100715272128577,-0.0006402706649154424
1791048995698736600,0.370736572265625,0.7525032516494393,-0.45478199557363985,-0.2035460483515635
1791048995708694800,0.38069482421875,0.5472726477444172,0.007816226708889007,0.024969478219468145
1791048995718652700,0.390652587890625,0.20647066709399223,-0.06799392429590224,0.20405330375395714
1791048995728611600,0.400611572265625,0.4086854303091764,-0.23896891511678695,-0.18133392428252845
1791048995738569700,0.41056982421875,0.6709738462150097,-0.24119769708216188,-0.14330531373200936
1791048995748527900,0.42052783203125,0.6303004750430583,0.10923486622273922,0.03551149489674717
1791048995758486800,0.43048681640625,0.17304127570092678,-0.2685369549065828,0.08160128336055204
1791048995768444700,0.440444580078125,0.3050716188386082,-0.3673813600182533,-0.08825043905144557
1791048995778402600,0.450402587890625,0.7861813571065663,-0.12971242158412932,-0.19544636505879462
1791048995788360700,0.460360595703125,0.6112962071046233,-0.13028291494846342,0.1286547474910505
1791048995798319600,0.470319580078125,0.3467190957397222,-0.2810860553562641,-0.0011451697134412825
1791048995808277500,0.480277587890625,0.5118213951349259,-0.2589689160943031,-0.12078655313290655
1791048995818235600,0.490235595703125,0.8347276536107063,-0.04163549420237541,-0.10886601464403793
1791048995828194600,0.500194580078125,0.6687701986908913,-0.1656944200694561,0.05991097294222563
1791048995838152700,0.510152587890625,0.5071881823763251,-0.39271687680482864,-0.01785650440910831
1791048995848110600,0.520110595703125,0.7075640397265553,-0.23644611864089965,-0.19798750090897083
1791048995858069800,0.53006982421875,0.6921013899177313,-0.050283495560288424,-0.12599400384919718
1791048995868027600,0.540027587890625,0.4922781980141997,-0.21652444359660147,0.11410778775503859
1791048995877985800,0.54998583984375,0.47040538890212774,-0.39748365281522274,-0.09748014928745105
1791048995887943700,0.559943603515625,0.7459966462343931,-0.2576379597514868,-0.1558668718044646
1791048995897902800,0.56990283203125,0.5849526823192834,0.05067337166070938,-0.09387850806629285
1791048995907860700,0.57986083984375,0.32357202890813347,-0.1339613112002611,0.1505557049853727
1791048995917819000,0.58981884765625,0.5109165552496909,-0.3977671459317207,-0.14894236977091058
1791048995927777800,0.59977783203125,0.7413181330293417,-0.14065174874961375,-0.1598579872672446
1791048995937735700,0.609735595703125,0.4892275782719254,-0.00739478642642498,0.054747909356933085
1791048995947693600,0.619693603515625,0.16573475207984448,-0.3383686160236597,0.006085512192454188
1791048995957652500,0.629652587890625,0.4397913471907377,-0.346467751327157,-0.0671362114880234
1791048995967610600,0.639610595703125,0.7109627422541379,-0.16813596800267697,-0.18460149297742173
1791048995977568500,0.649568603515625,0.4678384610235691,0.017150456765294073,0.10552393767451868
1791048995987526700,0.659526611328125,0.15891893458515405,-0.3418272320449352,-0.07021989324968307
1791048995997485600,0.669485595703125,0.4618371747821569,-0.3246276754409075,-0.03393505762657151
1791048996007443700,0.679443603515625,0.7050088022857904,-0.07915244717001914,-0.2034782620786689
1791048996017401600,0.689401611328125,0.4438561124116182,-0.03145663001537323,0.18397504990845917
1791048996027360800,0.69936083984375,0.19443594590723515,-0.5117255335450173,-0.16040718211522326
1791048996037318700,0.709318603515625,0.5745148749351501,-0.37543431809246536,-0.05445886328248307
1791048996047276800,0.71927685546875,0.6465142354801297,-0.03280161488354206,-0.12836124443719163
1791048996057234700,0.729234619140625,0.36358284451812506,-0.1710831273704767,0.16370015924600884
1791048996067193900,0.73919384765625,0.2006882843002677,-0.4708452416241169,-0.11300205500284209
1791048996077151700,0.74915185546875,0.687116587242484,-0.31767420304119587,-0.17302534747943282
1791048996087110000,0.75910986328125,0.6041022039473056,0.06086743341684341,0.05859351540179923
1791048996097068800,0.76906884765625,0.2359521976441145,-0.26230478251874445,0.10004240099089219
1791048996107026700,0.779026611328125,0.2549333769679069,-0.3797720550358295,-0.07451013778951018
1791048996116984600,0.788984619140625,0.5929734916895628,-0.1832739159017801,-0.13742409194000066
1791048996126943500,0.798943603515625,0.5202282812133431,-0.06310439868867397,0.11729912200910038
1791048996136901600,0.808901611328125,0.2156032370984554,-0.34235680887699127,0.038235184239596126
1791048996146859500,0.818859619140625,0.37779111035168167,-0.22578151676356792,-0.05815326995416544
1791048996156817700,0.828817626953125,0.6140256320685148,-0.09421090009212493,-0.19847703799158334
1791048996166776600,0.838776611328125,0.4328326140940189,-0.006532032117247581,0.19296908822506664
1791048996176734700,0.848734619140625,0.23639000453948975,-0.31096915244460105,-0.0438640843715053
1791048996186692600,0.858692626953125,0.46419542834609745,-0.1707090333610773,-0.04294409258291125
1791048996196651800,0.86865185546875,0.5664440889433026,0.004963175365328788,-0.14885228946781717
1791048996206609700,0.878609619140625,0.32673195424377915,-0.1420394037157297,0.22731205079909414
1791048996216567800,0.88856787109375,0.2989490443050861,-0.29494331579506394,-0.061511028550006445
1791048996226526700,0.898526611328125,0.5375304214090109,-0.13851882837414742,-0.1379256665202789
1791048996236484900,0.90848486328125,0.4986874805346131,-0.024668577310442922,-0.011304014025721698
1791048996246442800,0.91844287109375,0.40707127311080693,-0.25455694487094876,0.15900153483469037
1791048996256401700,0.928401611328125,0.38914457127600904,-0.30669103673398496,-0.0811306610409636
1791048996266360300,0.9383603515625,0.6067641166329384,-0.24019816465079782,-0.1794372968809679
1791048996276318200,0.948318115234375,0.514959693160653,0.022130583265423772,0.12054310889900662
1791048996286276400,0.9582763671875,0.3593377542942762,-0.40196109049022194,0.05419514344553463
1791048996296235300,0.9682353515625,0.581760608279705,-0.4605290147930383,-0.08484218324422836
1791048996306193400,0.978193359375,0.7325906366944313,-0.2221399453908205,-0.08370362593466416
1791048996316151300,0.9881513671875,0.5506739806205034,-0.1681464893966913,0.16548340766727923
1791048996326110500,0.9981103515625,0.37160511519312855,-0.4438181184887886,-0.06146687888102605
1791048996336068000,1.008068115234375,0.64939505161345,-0.46946986161768434,-0.08647514560776762
1791048996346026200,1.018026123046875,0.8988438596904277,-0.12383388493955134,0.13517454118123276
1791048996355985200,1.027985107421875,0.5237938647404313,-0.2110691008001566,-0.07928491444326936
1791048996365943300,1.037943359375,0.42265228860229254,-0.5612988350093364,0.008792871455010027
1791048996375901200,1.047901123046875,0.7991928143709898,-0.2813385688126087,-0.08704200397660024
1791048996385859300,1.057859375,0.9508622162193059,-0.21111761611700056,0.08798905730205588
1791048996395818200,1.067818359375,0.596026157258451,-0.5571282713264226,-0.05148294361107982
1791048996405776400,1.0777763671875,0.5872527759552002,-0.3311164529383182,-0.10972561801490373
1791048996415734300,1.087734375,0.8685615341514349,-0.28500995080173014,0.1076308285595849
1791048996425693200,1.097693115234375,0.8731330798506737,-0.3405032899647951,-0.0457527933280915
1791048996435651300,1.1076513671875,0.7023536116018891,-0.5527887808173895,-0.043187244555866346
1791048996445609200,1.117609130859375,0.8020350520595908,-0.3701408878594637,-0.02723572438471019
1791048996455568400,1.127568359375,0.8885822856560349,-0.26383096917271615,-0.020557497862959278
1791048996465526300,1.1375263671875,0.8998846009150147,-0.609219108569622,0.015885624461248516
1791048996475484400,1.147484375,0.8727344359219074,-0.36683950822651384,-0.0835547189832665
1791048996485443300,1.157443359375,0.8347598023146391,-0.2847732194364071,0.004504161285143345
1791048996495401500,1.1674013671875,0.9055044866234063,-0.5109662396103143,0.03682379220486618
1791048996505359000,1.177359130859375,1.001748646108806,-0.37240181852877136,-0.1688478060664609
1791048996515318300,1.187318359375,0.8644590672686695,-0.3401806338816881,0.07517451084922068
1791048996525276200,1.197276123046875,0.8905266977220773,-0.4826607671022415,-0.014955211743339896
1791048996535234300,1.207234375,0.9830097511082887,-0.36813013255894184,-0.11828727452992462
1791048996545192200,1.217192138671875,0.9813500012025237,-0.35846506311297416,0.12956177020021714
1791048996555151000,1.227151123046875,0.9491814235255122,-0.5256675496578216,-0.02517819819985889
1791048996565109200,1.237109130859375,0.9418711005121468,-0.39878947471678255,-0.07777956964792683
1791048996575067400,1.2470673828125,1.0658797574967145,-0.29089608623087404,0.17946230345806105
1791048996585026300,1.2570263671875,0.9167927733570337,-0.47389527684450145,-0.13484369265851565
1791048996594984200,1.266984130859375,1.0421695038244128,-0.4808914193421602,-0.06649617828512563
1791048996604942300,1.2769423828125,1.2179407890111207,-0.27456220654547214,0.15552794043999166
1791048996614901200,1.2869013671875,1.003679029649496,-0.46277299432754515,-0.2165097574841231
1791048996624859400,1.296859375,1.0710109829053283,-0.4521791195988655,0.06339358176044188
1791048996634817300,1.3068173828125,1.2452934908390045,-0.33113808024823665,0.10639208054486661
1791048996644776400,1.3167763671875,1.0957105398759246,-0.5082441211700439,-0.21233122969046234
1791048996654734300,1.326734375,1.2507330515444277,-0.3529781561344862,0.12001823564153163
1791048996664692200,1.336692138671875,1.0288605249181388,-0.4089619091629982,-0.025381356089143083
1791048996674651400,1.3466513671875,1.2020295186519623,-0.397471962377429,-0.0431449489172548
1791048996684609300,1.356609375,1.2544099864915013,-0.21940496746897697,0.11638155963961035
1791048996694567200,1.366567138671875,1.0518807504996657,-0.6210393102228641,-0.20454318789644166
1791048996704526000,1.376526123046875,1.2811369576364755,-0.4252162938714027,0.12176078672623261
1791048996714484200,1.386484130859375,1.1906859945997594,-0.3182382666647434,-0.010055986726004629
1791048996724442400,1.3964423828125,1.035085683043301,-0.4070750725030899,-0.09198550652707926
1791048996734400300,1.406400146484375,1.2102131173685193,-0.2716752529323101,0.10763967858632094
1791048996744359200,1.416359130859375,1.1141510364517568,-0.41797815931141374,-0.18828133226763455
1791048996754317300,1.4263173828125,1.2811352040708064,-0.31264439218044277,0.1579657437798567
1791048996764275200,1.436275146484375,1.1412909723117948,-0.3057365124881267,0.0032183957909233864
1791048996774234400,1.446234375,1.0843246379867195,-0.5421668490380048,-0.16837743034204466
1791048996784192300,1.456192138671875,1.4047028392896055,-0.23061083661615847,0.261749084864743
1791048996794150400,1.466150390625,1.0970701377913354,-0.48268122536838054,-0.3007597287225537
1791048996804109300,1.476109375,1.2639791943475602,-0.4955027130186557,0.19764285218976438
1791048996814067500,1.4860673828125,1.3388327752798794,-0.2833177599310875,-0.007282850484549999
1791048996824025000,1.496025146484375,1.2216677005797625,-0.6053273618280888,-0.15291469833482987
1791048996833984300,1.505984375,1.4938663928642868,-0.32929566725194453,0.1812860482865013
1791048996843942100,1.515942138671875,1.167346620066464,-0.5750631564676761,-0.17153423213884234
1791048996853900300,1.525900390625,1.4203621807143092,-0.4698234973609447,0.1964073007791303
1791048996863859200,1.535859130859375,1.2842255713015793,-0.2832218983411789,-0.04542429202608764
1791048996873817000,1.545817138671875,1.1400973786130546,-0.6275578983366489,-0.09884998546908609
1791048996883775200,1.555775146484375,1.5282479704156517,-0.40407472164332864,0.1623352458346635
1791048996893734100,1.565734130859375,1.1718605903595685,-0.529122658547759,-0.23220471821147948
1791048996903692300,1.5756923828125,1.506988032504916,-0.46910804256796834,0.19776572965076192
1791048996913650200,1.585650146484375,1.1491147978052496,-0.45128421658575535,-0.15927074369750915
1791048996923608300,1.5956083984375,1.344022160616517,-0.53602118588984,0.06271528064007871
1791048996933567200,1.605567138671875,1.4847271008580922,-0.4404419200539589,0.06983346034851856
1791048996943525400,1.615525390625,1.2341180168300867,-0.6291980667591095,-0.06867700205608271
1791048996953483300,1.625483154296875,1.511171455669403,-0.49455228042602534,0.2379672089946456
1791048996963442400,1.6354423828125,1.1602736129403113,-0.4588619583636522,-0.1622352925915271
1791048996973400300,1.645400390625,1.4242904600739479,-0.45383916176557537,0.21156251034028828
1791048996983358500,1.6553583984375,1.3083406063824892,-0.5137018020540476,-0.049046117518749086
1791048996993317400,1.6653173828125,1.3306450849100946,-0.5450432812571525,0.0414502829617355
1791048997003275300,1.675275146484375,1.5736320034965872,-0.5032575649291277,0.08049496608646586
1791048997013233200,1.685233154296875,1.1902911500632762,-0.561784572699666,-0.08639955962090752
1791048997023192000,1.695192138671875,1.5423141974300145,-0.4436164584368467,0.2435754590641707
1791048997033150200,1.705150146484375,1.158293837299943,-0.5715607013046741,-0.13066437941356562
1791048997043108400,1.7151083984375,1.5262579656422137,-0.44005788917243477,0.21817473155427722
1791048997053067300,1.7250673828125,1.2748469175815582,-0.4731254615157842,-0.04051449081581086
1791048997063025200,1.735025146484375,1.2589523060962557,-0.5961959608674049,0.06554635761384851
1791048997072983300,1.7449833984375,1.4753984237596391,-0.40875791102349757,0.10545962200034409
1791048997082942200,1.754942138671875,1.2110326170578598,-0.6900052944213152,-0.1343087820642162
1791048997092900400,1.764900390625,1.5960674149274825,-0.41850364449024197,0.2803551655321382
1791048997102858200,1.774858154296875,1.1181763464450836,-0.5190244583815335,-0.1667512539123185
1791048997112817400,1.7848173828125,1.4771867684811353,-0.4534294119209051,0.2653369898214936
1791048997122775300,1.794775390625,1.2370587464571,-0.5016431154698133,-0.089198981081089
1791048997132733400,1.8047333984375,1.3897174516037105,-0.6681582042723894,0.0891282447992824
1791048997142692400,1.8146923828125,1.471646085488796,-0.4180155687123537,0.06727033186224289
1791048997152650200,1.824650146484375,1.2425187654286622,-0.6350397785246372,-0.14136508465074002
1791048997162608400,1.8346083984375,1.5360595209494232,-0.34766835928857326,0.24064705919576806
1791048997172567300,1.8445673828125,1.1623697084367275,-0.646136926600337,-0.2796997886296361
1791048997182525200,1.854525146484375,1.583774335065484,-0.41265901011526585,0.35308329700939356
1791048997192483000,1.864483154296875,1.2408318352550267,-0.5949474221110344,-0.27282758303890003
1791048997202441200,1.874441162109375,1.4299845800623296,-0.4699813182711601,0.24942875166963785
1791048997212400000,1.884400146484375,1.2868050664007662,-0.40032384467720983,-0.17221492614569142
1791048997222358300,1.894358154296875,1.3039084691539407,-0.6343214011222124,0.07292237540772184
1791048997232316200,1.904316162109375,1.498194777457416,-0.35941841831505295,0.10640321386023424
1791048997242275300,1.914275390625,1.2041264909312128,-0.6344464888066053,-0.15256132745305076
1791048997252233200,1.924233154296875,1.506686126948893,-0.31185762571692466,0.19913930129259824
1791048997262191000,1.934191162109375,1.0753571954160928,-0.5674263779789209,-0.19038789435913786
1791048997272150000,1.94414990234375,1.5456319436758756,-0.5203115755826234,0.1832379678055644
1791048997282108200,1.954108154296875,1.1506532594189047,-0.5072843362271785,-0.13833136124433948
1791048997292066000,1.964066162109375,1.4680515681281685,-0.5871604214966297,0.18316433631377294
1791048997302025000,1.97402490234375,1.193208498814702,-0.4829202948212623,-0.18497319410033522
1791048997311983000,1.983983154296875,1.407518188971281,-0.5840671316564082,-0.009617184316786006
1791048997321941200,1.993941162109375,1.3356085525363683,-0.4153583322018385,-0.06451281331502833
1791048997331900200,2.003900146484375,1.1134788362786172,-0.662071577835083,-0.10122112591406329
1791048997341858000,2.013858154296875,1.482934956744313,-0.5148661696583032,-0.07548618888058699
1791048997351816200,2.023816162109375,1.1274228982180357,-0.4846317749142646,-0.21114041247069834
1791048997361775000,2.033775146484375,1.4987345834225416,-0.5040916776657104,-0.019451326719345522
1791048997371733200,2.043733154296875,1.1014569745734333,-0.5032710089325905,-0.38474779762178657
1791048997381691100,2.053691162109375,1.4789979095563293,-0.5786684874832629,0.09744663974349387
1791048997391650300,2.063650390625,1.1645289322972296,-0.47928982936441894,-0.3541426698692143
1791048997401608200,2.073608154296875,1.359611359414458,-0.5462473963499069,0.03552133130417205
1791048997411566300,2.08356640625,1.3596578289046883,-0.41336511255800723,-0.1598323413693346
1791048997421525200,2.093525146484375,1.2194374573096631,-0.4640332235217094,-0.2205795459399931
1791048997431483100,2.103483154296875,1.3823434157043695,-0.34250586195886135,-0.07345189744085073
1791048997441441000,2.11344091796875,1.1882432776227592,-0.5202940399259328,-0.2750347559606656
1791048997451400000,2.12339990234375,1.5102902889207004,-0.4983791452378034,-0.07209607151825911
1791048997461358000,2.133358154296875,1.1184615931272506,-0.4282061233371496,-0.23675993383042512
1791048997471316200,2.143316162109375,1.3257090898126362,-0.5594529148817062,0.013911785371322184
1791048997481275100,2.153275146484375,1.1494938602507114,-0.5375111321866513,-0.21548914573211223
1791048997491233000,2.16323291015625,1.4485449036255478,-0.5603448952853679,-0.020023390986258164
1791048997501191200,2.173191162109375,1.1460390436217187,-0.3910796309918165,-0.10227010524403303
1791048997511150000,2.183150146484375,1.1500666917026041,-0.6080500647902488,0.04546288873711601
1791048997521108200,2.193108154296875,1.296652798937261,-0.3575093698233366,-0.14708442127876914
1791048997531066000,2.203066162109375,1.3447022518351672,-0.6286942088901997,-0.060626162873720746
1791048997541025300,2.213025390625,1.4751999785780905,-0.47134617688357827,0.07121807397417723
1791048997550983200,2.222983154296875,1.0774965455323458,-0.43834290194809433,-0.12782523786434902
1791048997560941300,2.23294140625,1.3787743250459432,-0.3121481330960989,0.1482486792851705
1791048997570900200,2.242900146484375,1.0693085629016161,-0.3111591220587492,-0.21125936267524956
1791048997580858000,2.252858154296875,1.5461673657268284,-0.5593552997261285,0.16806193465208633
1791048997590816300,2.262816162109375,1.249274377168715,-0.21969664389193055,-0.07204126345794648
1791048997600775200,2.272775146484375,1.3176283669486641,-0.47296471799612044,-0.036780564984492954
1791048997610733000,2.282733154296875,1.121027059701085,-0.2248106259047985,-0.18700849932022393
1791048997620691000,2.29269091796875,1.3659072446882723,-0.6229150409668683,-0.049795027056755495
1791048997630650000,2.302650146484375,1.4712570861712098,-0.44492052677273747,0.00649383269844111
1791048997640608000,2.31260791015625,1.1219365757614375,-0.5103162512689828,-0.06171117249829694
1791048997650566100,2.322566162109375,1.2346680519282818,-0.3564718434691429,0.030987446167622692
1791048997660525000,2.332525146484375,1.0506593920111655,-0.43924014304876324,-0.33027039403561503
1791048997670483200,2.342483154296875,1.560747095221281,-0.40800796943902967,0.21351357134282586
1791048997680441000,2.352441162109375,1.1165879082098602,-0.3231622790634632,-0.21086554105207322
1791048997690399200,2.362399169921875,1.356006612920761,-0.41250411181449886,0.16366956317834555
1791048997700358100,2.372358154296875,1.1323781825378536,-0.3102665571331978,-0.23397560034152118
1791048997710316300,2.38231640625,1.380235337509215,-0.4695885195612907,0.20289613307546822
1791048997720274200,2.392274169921875,1.0818643853530288,-0.276662393695116,-0.1822386363035999
1791048997730233000,2.402233154296875,1.1830837029024959,-0.4432686679124832,0.022019067448657004
1791048997740191200,2.412191162109375,1.1164166432961822,-0.4947212072521448,-0.04025061571523547
1791048997750149400,2.4221494140625,1.2563298486381769,-0.6036176353007555,0.1019306624229066
1791048997760108300,2.4321083984375,1.3213348202511668,-0.5369581744790077,-0.012802104813081677
1791048997770066200,2.442066162109375,1.1314908783093094,-0.5841431195020675,-0.13476360402647405
1791048997780024000,2.452024169921875,1.3079910622924567,-0.5108931743741035,0.10570447274004109
1791048997789983000,2.46198291015625,1.1369514818027615,-0.46099604778289793,-0.1967175540383905
1791048997799941000,2.471941162109375,1.3570724885866046,-0.5577461109638214,0.21256244463045149
1791048997809899000,2.48189892578125,1.1041492823973298,-0.34779461601674555,-0.15408437230186536
1791048997819858200,2.491858154296875,1.2375099973559378,-0.4773012858957052,0.32065614146143195
1791048997829816000,2.501816162109375,1.114103982439637,-0.253624047935009,-0.12248068023230879
1791048997839774200,2.511774169921875,1.3267510000810026,-0.5377087005853652,0.21807505230577662
1791048997849733000,2.521733154296875,1.2757906281724571,-0.10148702857494353,0.15359437856152652
1791048997859691300,2.531691162109375,1.0560364088743925,-0.46682899172008036,0.09413199877017177
1791048997869649200,2.541649169921875,1.2395885571956633,-0.37023616492748257,0.2189227003773674
1791048997879608000,2.551608154296875,1.1185592082828282,-0.5516144763410091,0.11157034169929102
1791048997889566200,2.561566162109375,1.337832366065681,-0.3979208751887083,0.32319921354036774
1791048997899524000,2.571524169921875,0.9216527806088328,-0.5506967769742012,0.04447978685074486
1791048997909483300,2.581483154296875,1.2867203107267617,-0.3937117330610752,0.4999480385223403
1791048997919441200,2.591441162109375,1.1238941395699977,-0.3878817117333412,0.15070225558290257
1791048997929399300,2.6013994140625,1.256945057927072,-0.6562479862481355,0.4377061018818989
1791048997939358200,2.611358154296875,1.0142714430734514,-0.4510305340856313,0.13013781652250325
1791048997949316400,2.62131640625,1.2789122673243283,-0.3246563170135021,0.51831550639458
1791048997959274000,2.63127392578125,0.930747941212356,-0.535478749576211,0.07182344685564748
1791048997969233200,2.641233154296875,1.1319193328544497,-0.5862374614328145,0.3868448794988915
1791048997979191000,2.65119091796875,1.0452852977573872,-0.5368471153199672,0.12346745364679954
1791048997989149200,2.661149169921875,1.035832117496431,-0.7093997307211161,0.178606252884306
1791048997999108000,2.671108154296875,1.1066618497401475,-0.6911345907121896,0.08540952567025087
1791048998009066000,2.68106591796875,0.9805907072678208,-0.5262666845947503,0.14830323161715642
1791048998019024100,2.691024169921875,1.1988047113865614,-0.713642775118351,0.2778745459638536
1791048998028983000,2.700983154296875,1.2355395740658044,-0.540596238720417,0.12526020968193188
1791048998038941200,2.710941162109375,1.3666393583551049,-0.50058629989326,0.3928852556416765
1791048998048899000,2.720899169921875,0.7852914225295186,-0.3353483914196491,0.10921537607097997
1791048998058858200,2.730858154296875,1.098695693166554,-0.3154658793419599,0.3723694871617481
1791048998068816100,2.740816162109375,0.9285825798720121,-0.41404315795004365,-0.033262903119204566
1791048998078774300,2.750774169921875,1.292079791933298,-0.528026095482707,0.379386489784345
1791048998088733200,2.760733154296875,0.7798124065965414,-0.4046183270007372,-0.09278982691359705
1791048998098691300,2.77069140625,0.9021969695106148,-0.4639309321910143,0.16683102288395166
1791048998108649200,2.780649169921875,0.7243427405700087,-0.33398587089478965,-0.05319584390961099
1791048998118608100,2.790608154296875,1.2690978525355459,-0.5029390004992484,0.03206371992989443
1791048998128566000,2.80056591796875,1.0569228363201022,-0.3725882810115814,-0.04615106279752217
1791048998138524200,2.810524169921875,1.0041758732557295,-0.40319501619935033,0.05147794777555391
1791048998148483000,2.820483154296875,0.8932648905143141,-0.11494038438796997,-0.020468223560752813
1791048998158441000,2.83044091796875,0.9061965605407952,-0.3223223211079836,-0.010567605492973234
1791048998168399000,2.840399169921875,1.017166872254014,-0.4278641780316829,-0.09547894726656377
1791048998178358000,2.85035791015625,0.9106576316028833,-0.32004151669442654,-0.10528870414653792
1791048998188316200,2.860316162109375,0.9079597708210349,-0.5240431633263826,-0.031534471891401336
1791048998198274000,2.870274169921875,0.880512376447022,-0.21789047125279903,-0.4122184632735327
1791048998208233200,2.880233154296875,0.8894087996080517,-0.5144897375613451,-0.1799586356076412
1791048998218191000,2.890191162109375,1.0803910979300737,-0.2821113067507744,-0.4650749145943671
1791048998228149200,2.900149169921875,1.1876298218995331,-0.5711082813620567,-0.3152968794506043
1791048998238108200,2.910108154296875,1.1108215997681021,-0.22489187444746492,-0.3842306053472683
1791048998248066300,2.92006640625,1.06687695184052,-0.307280234798789,-0.0615345098902937
1791048998258024200,2.930024169921875,1.0081573441073297,-0.024321955829858778,-0.2640168653999455
1791048998267983000,2.939983154296875,1.1901616784647107,-0.5376543400496244,-0.11698827509479597
1791048998277941200,2.949941162109375,0.9929609440192579,-0.19781798956096172,-0.15170150488647632
1791048998287899100,2.959899169921875,1.036105673740804,-0.326100086081028,-0.14641750920210034
1791048998297858300,2.9698583984375,0.7455532863810658,-0.08369652034044266,-0.42801081996075807
1791048998307816200,2.979816162109375,1.2250596811056136,-0.4213128566920757,-0.25040895834602417
1791048998317774300,2.9897744140625,1.1606485837325453,-0.14886135869026182,-0.5286122978728264
1791048998327733200,2.999733154296875,1.3202055239602923,-0.3299468246370554,-0.19448321911506353
1791048998337691100,3.009691162109375,1.0136106410771608,-0.1564876157850027,-0.48403651243485507
1791048998347649000,3.01964892578125,1.3891203624933957,-0.17874153316915034,0.07648497239327989
1791048998357608200,3.029608154296875,1.1795070134595036,-0.19547639487087726,-0.2628153258567676
1791048998367566000,3.039566162109375,1.29699006806761,-0.1143763207644224,0.12914644913128576
1791048998377524200,3.049524169921875,1.0911927701905368,-0.22295593794882296,-0.08796283601541072
1791048998387483100,3.059483154296875,1.512023688584566,-0.36082711606919765,0.11006527089858427
1791048998397441000,3.06944091796875,1.040923010894656,-0.22438977014422415,-0.12906210444923488
1791048998407399200,3.079399169921875,1.236386838544905,-0.1317787064641714,0.03314521100668935
1791048998417358000,3.089358154296875,1.1389856179788709,-0.1607663160175085,-0.2329356811008416
1791048998427316200,3.099316162109375,1.5676143506422637,-0.2376952419191599,-0.0570294124568114
1791048998437275100,3.109275146484375,1.0645195750594139,-0.3039952217787504,0.009642168060992844
1791048998447233300,3.1192333984375,1.1253364473327994,-0.17145196068286894,0.10028115078336558
1791048998457191200,3.129191162109375,0.9664794720679522,-0.4150017738491297,-0.0657980673525948
1791048998467150300,3.139150390625,1.1556102973043918,-0.1697112544953823,0.32878928863238543
1791048998477108200,3.149108154296875,0.7813803865656256,-0.47083355118632314,-0.054846835120185275
1791048998487066400,3.15906640625,0.9398153370261192,-0.44694238798916336,0.19751233941158278
1791048998497025300,3.169025390625,0.8709393691986799,-0.44383156249225136,0.0364636582221603
1791048998506983200,3.178983154296875,1.036378353202343,-0.3295674699306488,-0.00013102880141232162
1791048998516941000,3.188941162109375,0.8627923031002283,-0.6042863283425569,-0.2412922800304368
1791048998526900200,3.198900146484375,1.1310954492509364,-0.32489889359772206,0.029649496111727784
1791048998536858000,3.208858154296875,0.8352838261887431,-0.42019641988277434,-0.17061569252181796
1791048998546816000,3.21881591796875,0.8073843041330575,-0.37675650660693644,-0.01078185902336263
1791048998556775200,3.228775146484375,0.7945034875109791,-0.6858908448398113,-0.07524813777443487
1791048998566733000,3.238733154296875,0.9724471483007073,-0.5801970122247934,0.17332663198094814
1791048998576691200,3.248691162109375,0.7796928718701005,-0.4793231471121311,0.06638662153000477
1791048998586650000,3.258650146484375,0.46959319573640823,-0.405944607168436,0.2402493468487635
1791048998596608300,3.268608154296875,0.7524380774587393,-0.40903789700865745,-0.08473921606009825
1791048998606566100,3.278566162109375,0.8297022266641259,-0.40778526659905906,0.18592397375283762
1791048998616525000,3.288525146484375,0.9847533799052238,-0.7485358093231916,-0.15057002577167003
1791048998626483200,3.298483154296875,0.6276107975676656,-0.4635813881009817,0.05586408587133046
1791048998636441300,3.30844140625,0.5405535686224698,-0.5237924034357071,-0.028013576889410613
1791048998646400300,3.318400146484375,0.6209069160148502,-0.4783037409365177,-0.09357949772025458
1791048998656358100,3.328358154296875,0.8084224150091409,-0.7167606148779392,0.12145527357417157
1791048998666316300,3.33831640625,0.9068921415895224,-0.3989963954657316,0.23362857700213788
1791048998676275200,3.348275146484375,0.7075409511119127,-0.3607271628260612,-0.10517784591689705
1791048998686233300,3.3582333984375,0.6694692868709564,-0.09211188198626041,0.14581345149488187
1791048998696191000,3.36819091796875,0.8707605055004358,-0.49650516805946826,-0.07331755330434535
1791048998706150400,3.378150390625,0.9812933025792241,-0.2539630706310272,0.09240211537079886
1791048998716108000,3.38810791015625,0.7820207302957772,-0.47182256222367286,-0.21829101487770675
1791048998726066200,3.398066162109375,0.5989464286193251,-0.16015490612089633,0.1390809283694718
1791048998736025000,3.408025146484375,0.7243833648413419,-0.5613654705047607,-0.311169460789673
1791048998745983200,3.417983154296875,0.9189864840090274,-0.3971972370892763,0.001489462239621207
1791048998755941000,3.427941162109375,0.9023957069531082,-0.39310909099280833,0.007553452153434045
1791048998765900000,3.437900146484375,0.73683572691828,-0.13651216472685337,-0.05494017139286734
1791048998775858200,3.447858154296875,0.8238032317534089,-0.41034781056344505,-0.036487829115614295
1791048998785816300,3.45781640625,0.8556316176906228,-0.2463689622402191,0.09209588069953024
1791048998795775200,3.467775146484375,0.8085653306111693,-0.3502420091688633,0.0006000071531860158
1791048998805733000,3.477733154296875,0.6848886820599437,-0.3597580255329609,0.0929485702724196
1791048998815691300,3.487691162109375,0.7091811195343732,-0.523840918752551,-0.3085430578088388
1791048998825650200,3.497650146484375,0.8296008121162652,-0.3198679136931896,0.27303788305502386
1791048998835608300,3.5076083984375,0.6410182684123515,-0.16772738720178604,-0.24394915121477095
1791048998845566200,3.517566162109375,0.652595308959484,-0.25761224078834055,0.005724798254435882
1791048998855525400,3.527525390625,0.8297156706675887,-0.2754302215516567,-0.15009494647267274
1791048998865483300,3.537483154296875,0.897750511495769,-0.28168460577130316,-0.1276201254799962
1791048998875441200,3.547441162109375,0.6220709913581609,-0.366844768923521,-0.1559869910527952
1791048998885400300,3.557400390625,0.6132090549886227,-0.2618213829159736,-0.1493757014205679
1791048998895358200,3.567358154296875,0.642740854421258,-0.24071195939183235,-0.11973026727931574
1791048998905316000,3.577316162109375,0.8170593104511499,-0.40015199524164197,-0.0487542401663959
1791048998915275000,3.58727490234375,0.8144856605708599,-0.20664777722656727,-0.012281622319645248
1791048998925233200,3.597233154296875,0.8395891221672296,-0.11631693343818188,0.07411482746214605
1791048998935191000,3.60719091796875,0.5585831463098526,-0.43217327340245243,-0.19917272863816468
1791048998945150200,3.617150146484375,0.7749871783971786,-0.2234638874709606,0.17784900477621704
1791048998955108000,3.627108154296875,0.6800678377747535,-0.4406850811600685,-0.031850958528625774
1791048998965066200,3.637066162109375,0.8314870642542839,-0.29016835647821426,0.24711674840021877
1791048998975025200,3.647025146484375,0.5704214681416749,-0.5060527486056089,-0.06163191498331725
1791048998984983300,3.6569833984375,0.6731035517200827,-0.10344225429594515,0.25571784187648444
1791048998994941200,3.666941162109375,0.4841641574025154,-0.526668251132965,-0.22000733554260804
1791048999004900000,3.676900146484375,0.8334802838981151,-0.34466274773180483,0.333649807340838
1791048999014858200,3.686858154296875,0.7017454165756702,-0.556825488987565,-0.26327428513802587
1791048999024816400,3.69681640625,0.8256126192629337,-0.3538011629551649,0.19669205427095293
1791048999034775300,3.706775390625,0.5606064688310026,-0.3427724039405584,-0.2056361524986103
1791048999044733200,3.716733154296875,0.7709832034528254,-0.44078620344698427,0.08239148389017209
1791048999054691000,3.726691162109375,0.6910007351994514,-0.39678456463515754,-0.1478205900662113
1791048999064650200,3.736650146484375,0.6902718364030123,-0.49530163748860356,0.18840868497435
1791048999074608000,3.746608154296875,0.5283125112086534,-0.4056049999505281,-0.11219989004079252
1791048999084566000,3.75656591796875,0.6809092570349574,-0.23688275649249552,0.12423063830533064
1791048999094525200,3.766525146484375,0.6841019155964255,-0.3793447695344686,-0.03661600380623713
1791048999104483000,3.776483154296875,0.7879349227756262,-0.45357086621820925,0.035629714448936284
1791048999114441200,3.786441162109375,0.5445990446209907,-0.2481850717514753,0.11665494235404766
1791048999124400000,3.796400146484375,0.5088008782699703,-0.1471031168460846,0.08148204089505598
1791048999134358300,3.806358154296875,0.45287002447247504,-0.32053193055987356,0.04821055261059664
1791048999144317200,3.816317138671875,0.7767652939856052,-0.331471257725358,0.07945987828453072
1791048999154275000,3.826275146484375,0.5871151210501789,-0.4346721044808626,-0.2168290890989825
1791048999164233200,3.836233154296875,0.6534156854316592,-0.08706161285936832,-0.0356168275678996
1791048999174192000,3.846192138671875,0.5259980967864394,-0.2706634455412626,-0.21389734649602324
1791048999184150300,3.856150390625,0.8665256444096565,-0.005423778614401817,-0.020329050268791615
1791048999194108200,3.866108154296875,0.7081354098737239,-0.15193126765489579,-0.03808807651964016
1791048999204067300,3.8760673828125,0.6387456473052501,0.19326397951841354,0.06485878634164109
1791048999214025200,3.886025146484375,0.3492728718757629,0.02109071882367134,-0.01770555163109675
1791048999223983400,3.8959833984375,0.4702227258116007,0.0794248343706131,0.26295646962681785
1791048999233942300,3.9059423828125,0.5445201341658831,-0.2376549099087715,-0.08621568182082846
1791048999243900400,3.915900390625,0.510123943567276,-0.13667816894352436,0.0841862400861457
1791048999253858000,3.925858154296875,0.4353156630814075,0.001572363883256912,0.045752811594400554
1791048999263817500,3.9358173828125,0.32397301092445846,-0.13811550827026367,-0.1604405729281716
1791048999273775600,3.945775634765625,0.5214888026684522,-0.32709903399050233,0.034707932562055066
1791048999283733500,3.9557333984375,0.644736412152648,-0.31539164506196976,-0.17533563371580094
1791048999293692700,3.965692626953125,0.5045943664908409,-0.3845084359079599,0.009946315806452184
1791048999303650600,3.975650634765625,0.4081532231286168,-0.31225860773324965,-0.032362821607477964
1791048999313608700,3.985608642578125,0.4345601685389876,-0.4623831182271242,0.23744649132248014
1791048999323567600,3.995567626953125,0.6498641304299235,-0.48386488219499585,-0.04766706598419696
1791048999333525800,4.00552587890625,0.6792913004443049,-0.4923462948143482,0.2627163224617019
1791048999343483400,4.0154833984375,0.21924217812269925,-0.5844114150494337,-0.3875807925580069
1791048999353442600,4.025442626953125,0.19959142897427082,-0.6850321821838616,0.2573137327658012
1791048999363400400,4.035400390625,0.21834113762974738,-0.266488790205121,-0.3558613468879834
1791048999373358600,4.045358642578125,0.1469520179376006,-0.6740700586646795,0.027278284884802995
1791048999383317500,4.0553173828125,0.4701572593599558,-0.8065519449621439,0.2186132325693965
1791048999393275400,4.065275390625,0.5229349098235369,-1.327844932797551,0.017352463877107947
1791048999403233500,4.075233642578125,0.6144011873826384,-0.6541326015293598,0.19856272524734958
1791048999413192400,4.0851923828125,0.04456248756498098,-0.5805728597998618,0.23406565324515102
1791048999423150600,4.095150634765625,0.028160218818485735,-0.4887257662296295,0.3549361583344638
1791048999433108500,4.1051083984375,-0.009048691113293171,-1.0111305146992207,0.18374242846267297
1791048999443067600,4.115067626953125,0.4156254587054252,-1.0735416704267262,0.17428891940815372
1791048999453025500,4.125025634765625,0.5134031113684178,-1.203186287471652,-0.11129749784097075
1791048999462983700,4.134983642578125,0.416043684117496,-0.7399924373835325,0.08481759679224342
1791048999472942600,4.144942626953125,0.24516309358179567,0.0593254646718502,-0.1061360325577203
1791048999482900700,4.154900634765625,0.22022329811453817,-0.15316519336402415,-0.004607703858008608
1791048999492858600,4.164858642578125,0.6781301477104426,-0.24138474408686159,0.09034982248349115
1791048999502817500,4.174817626953125,0.8750684318274259,-0.5831055931478738,0.06919081506342627
1791048999512775700,4.184775634765625,0.8394117197737098,-0.05781038393378257,0.050233381941402325
1791048999522734600,4.194734619140625,0.37244565767049786,-0.02460778703391552,0.1830497152244672
1791048999532692700,4.204692626953125,0.450242306317389,0.1591319928139448,0.02224661086052656
1791048999542650400,4.214650390625,0.7657204606190323,-0.09695932201743125,0.2513597014659084
1791048999552609500,4.224609619140625,0.8408274317905307,0.11445289313197135,0.06089349943986162
1791048999562567400,4.2345673828125,0.5813491048693656,-0.11013035375773907,-0.018603395519964396
1791048999572525600,4.244525634765625,0.668653294312954,0.20103753612935543,0.0035586149301845577
1791048999582484500,4.254484375,0.6270940802171826,-0.17047171747386455,-0.2671245308253914
1791048999592442600,4.264442626953125,0.707146983358264,0.08536883746683598,-0.18196045868303626
1791048999602400500,4.274400390625,0.4884165541499853,-0.040807811206579205,-0.5867936705434694
1791048999612359400,4.284359375,0.7212175942867994,0.06509820285439491,-0.3335687414612621
1791048999622317600,4.294317626953125,0.9573620996326208,-0.15975333958268165,-0.7310069476995616
1791048999632275500,4.304275390625,1.0208365006774662,0.20312252570986747,-0.2546306311616674
1791048999642234600,4.314234619140625,0.8413111236542463,0.35234804153740407,-0.5322581800945103
1791048999652192500,4.324192626953125,0.6647507339164614,0.5880757827758789,-0.19831107030753045
1791048999662150700,4.334150634765625,0.8687810221210122,0.4875970544606447,-0.43663576923664654
1791048999672109600,4.344109619140625,1.0103878796383738,0.14551087921857833,-0.17579355181744322
1791048999682067700,4.354067626953125,1.0194935616359113,0.3550812658935785,-0.22337511320896444
1791048999692025600,4.364025634765625,0.7285542207852006,0.2754039180666208,-0.24394188122376798
1791048999701984800,4.37398486328125,0.717695265379548,0.5179243881851434,-0.2646486970300786
1791048999711942700,4.383942626953125,0.8413076165229082,0.13473463366031646,-0.2674850712334737
1791048999721900500,4.393900634765625,1.1390984307035803,0.4072749789893627,-0.09681378520005382
1791048999731859500,4.403859375,0.9738421097904443,0.29255846648514267,-0.20343442293694242
1791048999741817600,4.413817626953125,0.9306590938851237,0.40715632104575633,0.017045973477512598
1791048999751775500,4.423775390625,0.9640119129106401,0.38478549928367134,-0.1205816051453352
1791048999761734400,4.433734375,0.9473688211455941,0.34659342353343964,-0.016745675356686113
1791048999771692500,4.443692626953125,0.8331196338921785,0.2535480600893497,-0.207119723853562
1791048999781650400,4.453650390625,0.9125970752328634,0.053090369674563404,-0.043246646592905745
1791048999791609600,4.463609619140625,1.0907847739115357,0.39812545785009856,-0.24476401126161215
1791048999801567500,4.4735673828125,0.874846313509345,0.18754618639349938,-0.16612806224636734
1791048999811526700,4.483526611328125,0.9180690769031643,0.39719372995793817,-0.3577957490166649
1791048999821484500,4.493484619140625,0.9163318778470158,0.26367373278439044,-0.20616870673904195
1791048999831442700,4.503442626953125,0.9613017771691084,0.4090478338807821,-0.43959863763023166
1791048999841401600,4.513401611328125,0.28378742326945067,-0.5503928255915641,-0.46774712947830555
1791048999851359500,4.523359375,0.7401920516088605,-0.023419454032182693,-0.4594331093151122
1791048999861317600,4.533317626953125,0.3566784719571471,-0.48459728812277314,-0.26631672157384456
1791048999871276500,4.543276611328125,0.7152358895286918,-0.2538216163337231,-0.20745105643346903
1791048999881234700,4.553234619140625,0.5503723673254252,-0.5502168845027685,-0.11446339625967666
1791048999891192600,4.563192626953125,0.7108025832563638,-0.5454711512804031,-0.04236681328476406
1791048999901151700,4.57315185546875,0.39950317594408985,0.01530804376900196,0.2694706190275028
1791048999911109400,4.583109375,-0.34914544610381126,-0.28037819934785363,-0.16294338606195524
1791048999921067500,4.593067626953125,0.06347264747917651,-0.11558218942284583,0.4992889535591006
1791048999931026400,4.6030263671875,-0.09625263505280017,-1.5806033038139342,0.010576558267697692
1791048999940984600,4.612984619140625,0.8111822351112962,-0.8352548923552036,-0.10915791026270016
1791048999950942500,4.6229423828125,0.08703940102756023,-1.0464596022337675,-0.1996751252023503
1791048999960901400,4.6329013671875,-0.04570727368593216,-0.34962943022847176,0.17697636839384212
1791048999970859500,4.642859619140625,-0.27345599886924027,-0.5113245515286922,0.1327516066169366
1791048999980817700,4.652817626953125,0.20547581083774566,-0.6527168895125389,0.24149622337101026
1791048999990776600,4.662776611328125,0.14428513681590557,-1.1060831730693579,0.5894438927913084
1791049000000734500,4.672734375,-0.09769114342331886,-1.4679390476644039,0.3555741639770567
1791049000010692600,4.682692626953125,-0.418802042914927,-1.0228367345839737,0.22257632751408962
1791049000020651500,4.692651611328125,-0.7902469991102814,-1.0832149231791495,0.22741225977055726
1791049000030609700,4.702609619140625,-0.2999143822059035,-1.0972469556629658,-0.13016591923898085
1791049000040567600,4.712567626953125,0.2702712313532829,-1.4266671260774135,0.33824067879505454
1791049000050526700,4.722526611328125,0.7349792853966355,-1.0934750359088181,0.12168655244624242
1791049000060484600,4.732484619140625,-0.016159984423220156,-1.0435691414892674,0.6162278913531452
1791049000070443500,4.742443603515625,-0.3073483315989375,-0.8738958809167147,0.3445039769735187
1791049000080401700,4.752401611328125,-0.4044815488785505,-1.0748176817119122,0.4087553902728483
1791049000090359600,4.762359619140625,0.12231237446069716,-0.8308090188622475,0.46336518806703386
1791049000100318700,4.772318603515625,-0.03968669822216034,-1.0647837789535521,0.4203642141977325
1791049000110276400,4.7822763671875,0.2040536690801382,-0.897461465421319,0.2542601356151514
1791049000120234500,4.792234375,0.4300809772983193,-0.6053337915688752,-0.07221170638771728
1791049000130193400,4.802193359375,0.6824030027240514,-0.4099462440252304,0.2367620344559662
1791049000140151600,4.812151611328125,0.37731706309914587,-0.5741384428381919,-0.17294395280629396
1791049000150109400,4.822109375,0.18443652994036674,-0.44167876837253567,0.4285729108229279
1791049000160068600,4.832068603515625,0.545631602539122,-0.028794717329740524,0.12425903328275308
1791049000170026500,4.842026611328125,0.2925342088267207,0.01784603781402111,-0.044817649636138226
1791049000179984600,4.851984619140625,0.2930494648724794,0.34766719024479387,0.27653370754783974
1791049000189943600,4.861943603515625,-0.018949907402694224,0.22317864078879354,0.09739170381901785
1791049000199901700,4.871901611328125,0.509456127308309,0.7117857490748166,0.23643218144709244
1791049000209859600,4.881859619140625,0.7317804893553257,0.45054070474207397,0.25510964685026555
1791049000219818500,4.891818603515625,0.7054910328447819,0.16571663190126418,0.09506197309666313
1791049000229776600,4.901776611328125,0.7006774950832129,0.45526247256696223,0.1279855886583682
1791049000239734500,4.911734619140625,0.36219022111594673,0.6099257955342531,0.1058620653213933
1791049000249693700,4.921693603515625,0.4824702129662037,0.8623036428004502,-0.04075798071548342
1791049000259651600,4.931651611328125,0.4312935679584741,0.023109072908759114,-0.2982982157135382
1791049000269609500,4.941609375,0.9578709259375929,0.4799100070893764,-0.17330423748604953
1791049000279568400,4.951568359375,0.6564256809026002,0.1374742877572775,-0.3663936641551554
1791049000289526500,4.961526611328125,0.5154042220577597,0.7455284442007541,0.025176599897816777
1791049000299485400,4.9714853515625,0.3422776061609387,0.5247253003716469,-0.31536541464217005
1791049000309443600,4.981443603515625,0.5997925240546464,0.2785071447789669,-0.030830442674737422
1791049000319401500,4.9914013671875,0.7841501435399055,0.655547729024291,-0.14383189488938078
1791049000329360400,5.0013603515625,0.3968345412567258,0.6628770489990711,-0.07408820431670174
1791049000339318300,5.011318359375,0.445342843838036,0.6205132405221462,-0.0561322946537286
1791049000349276400,5.0212763671875,0.7419324655354023,0.2806178533226251,-0.31651253885068
1791049000359235300,5.0312353515625,0.9048638506323099,0.49216860015988345,0.03199386043092236
1791049000369193200,5.041193115234375,0.5538552410051226,0.8563929574519396,-0.16692003460796548
1791049000379151400,5.0511513671875,-0.01993570356965065,0.4327981273025274,0.11882394782304763
1791049000389110300,5.0611103515625,0.7875947310358286,0.3088473379850387,0.05064781709434464
1791049000399068400,5.071068359375,0.8373977496027946,0.0486333902657032,-0.16325318266348912
1791049000409026300,5.0810263671875,0.7781815905243158,0.6120487790375948,0.10465701864687725
1791049000418985500,5.0909853515625,-0.0263142986908555,0.09210136059224605,-0.37211733903158456
1791049000428943400,5.100943359375,0.32064386650174853,0.31071079376935956,-0.06466329116900452
1791049000438901500,5.110901611328125,0.6231076409295201,-0.10563128877282142,-0.47232974456083027
1791049000448860400,5.1208603515625,0.8489102004811168,-0.22372224614620206,-0.2352536209207028
1791049000458818600,5.130818603515625,0.5625421130686998,0.041372459352016444,-0.5900921275669708
1791049000468776400,5.1407763671875,-0.05354308187812566,0.260531927627325,-0.29186080307718365
1791049000478735400,5.1507353515625,0.014147183296084402,0.3091150490105152,-0.5265568266477435
1791049000488693500,5.160693603515625,0.36451983310729263,-0.36485797902047634,-0.7149997426852583
1791049000498652400,5.17065234375,0.9771236156791449,-0.5953817218750715,-0.08892357993950135
1791049000508610600,5.180610595703125,0.6566945609718561,-0.5607856247901917,-0.3496310011310503
1791049000518568200,5.190568115234375,-0.1811681757941842,-0.4693143787950277,-0.25936841853959486
1791049000528527600,5.200527587890625,-0.10768179156184196,-0.3405903837263584,-0.27506588175129143
1791049000538485200,5.2104853515625,0.3500026474550366,-0.6656494363218546,-0.2684207081157714
1791049000548443400,5.220443359375,1.0469240048751234,-0.8025964853346347,0.16812632339149713
1791049000558402300,5.23040234375,0.6028212242260574,-0.9404588956266641,-0.43945963101834057
1791049000568360400,5.2403603515625,0.3608154256314039,-1.186244505020976,-0.037895485690142956
1791049000578318300,5.250318359375,0.47898470893800255,-0.9001362375885248,-0.44139640776719896
1791049000588277200,5.26027734375,0.325743819989264,-1.2303659708201884,-0.26381712331045415
1791049000598235400,5.2702353515625,0.3332692470580339,-1.205880933383107,-0.0683240147667937
1791049000608193300,5.280193359375,0.17620412364602087,-1.3821569532215594,-0.29053291547428817
1791049000618152400,5.29015234375,0.7452502117812633,-0.628725188550353,0.05331775782280601
1791049000628110300,5.3001103515625,0.3933879079341888,-0.7340694770753383,-0.48162824571672824
1791049000638068500,5.310068359375,0.07961363494098186,-0.9134171594440936,0.3012584902912378
1791049000648027400,5.32002734375,0.23312837239503859,-0.6469488275051116,-0.2534981747993268
1791049000657985500,5.329985595703125,0.5019803846001625,-1.0762199497252702,0.04424677267931401
1791049000667943400,5.339943359375,0.7035241166859865,-0.723368634840846,0.10758761960552074
1791049000677902300,5.34990234375,0.007409691734611988,-0.09866378784775734,0.12959098716154693
1791049000687860500,5.359860595703125,0.01318272217810154,-0.10037176080942153,0.12709747157907111
1791049000697819400,5.3698193359375,-0.24619915863126515,-0.29040450332164763,0.06507577182687818
1791049000707777500,5.379777587890625,-0.07832768678367137,-0.9242840058952569,-0.09269173683398403
1791049000717735200,5.389735107421875,0.9630369303986429,-0.5564502259343862,-0.08918678831979632
1791049000727694600,5.399694580078125,0.851461054007709,-0.4700239883691072,0.04315170745160431
1791049000737652200,5.40965234375,0.4413391611546278,0.5722615430504083,-0.06919069633241742
1791049000747610400,5.4196103515625,-0.32807197067588567,0.04004851727187633,0.13284307515951804
1791049000757569300,5.4295693359375,0.1592176252707839,0.445710215845704,0.35975988869648423
1791049000767527400,5.43952734375,0.4579378292560577,-0.050613750427961346,0.2853951872596517
1791049000777485300,5.4494853515625,0.7356625914856791,-0.20425591365396975,0.3737102342462167
1791049000787444500,5.459444580078125,0.2019122731372714,0.6253285318493843,0.16395857272017747
1791049000797402400,5.46940234375,-0.4386620508998632,0.21640344756543636,-0.026767805478861553
1791049000807360500,5.479360595703125,0.042240766619145866,0.8488356739401817,0.31531467083562165
1791049000817319400,5.4893193359375,0.3822954360336065,-0.11897884612381457,-0.06787398771066218
1791049000827277300,5.49927734375,0.831551946184039,0.30461072332859035,0.37178993370812385
1791049000837235500,5.5092353515625,0.4038280534058809,0.727359750303626,-0.027805496229836715
1791049000847194400,5.5191943359375,-0.12510288196206093,0.7339402977377176,0.2706706059344113
1791049000857152500,5.529152587890625,-0.0011260814204812049,0.8932172519803047,0.13895669920160433
1791049000867110400,5.5391103515625,0.31762831807285546,-0.012517536267638206,0.06443388459361157
1791049000877069600,5.549069580078125,0.8129948374912143,0.17922201016247272,0.4030118781847879
1791049000887027500,5.55902734375,0.3635954117387533,0.20879297256171703,-0.05399669826398603
1791049000896986400,5.568986328125,-0.19256255325078964,0.544667433682084,0.32737770480141043
1791049000906944500,5.578944580078125,0.028546880048513412,0.47951370124816894,0.03677465583351441
1791049000916902400,5.58890234375,0.3823033270791173,-0.32600363996922965,0.2585844285550527
1791049000926861300,5.598861328125,1.117815404178202,0.2959533696204424,0.14417911002500913
1791049000936819200,5.608819091796875,0.24871640214920043,-0.08002221574187278,-0.15766093388069422
1791049000946777300,5.61877734375,-0.1720139784798026,0.28397768514454363,0.40885041161254043
1791049000956736300,5.628736328125,-0.04308744657635689,0.2646329332053661,-0.18611876567257568
1791049000966694400,5.6386943359375,0.40648295182883737,-0.08907061459422111,0.2854709376432933
1791049000976652300,5.64865234375,0.5144929524317383,0.10864917528927326,0.22511147201489656
1791049000986611500,5.658611572265625,-0.17540683578848837,0.3936842605322599,0.3727805887132883
1791049000996570400,5.6685703125,0.06016162323504686,0.05338087705373764,-0.3680569211922586
1791049001006528300,5.6785283203125,0.26484453012943265,-0.9276146116226911,0.24690761742787434
1791049001016486400,5.688486328125,0.6203498666539788,-0.3399959249645471,-0.3337652869466692
1791049001026445300,5.6984453125,0.06937865665256977,-0.4545458487302065,0.04063370588184334
1791049001036403500,5.708403564453125,0.19746172346919774,-0.37342239374816416,0.043824510412942615
1791049001046361300,5.718361328125,0.632026275922358,-0.6498983249604702,-0.22647570957280694
1791049001056320500,5.728320556640625,0.6242313842624425,-0.8848276092976332,0.24579136328166348
1791049001066278400,5.7382783203125,0.3747875446215272,0.3130705086380243,-0.20601525147669017
1791049001076236500,5.748236572265625,-0.3052095660045743,-0.558127219235897,-0.2084718325822614
1791049001086195500,5.758195556640625,0.6585021949157118,-0.6160463242411613,-0.2224944579169154
1791049001096153600,5.768153564453125,1.4857564439058304,-0.9433739062905311,-0.4682010472582653
1791049001106112500,5.778112548828125,1.4896131193339823,-0.7719026563853025,-0.009761223296821117
1791049001116070400,5.7880703125,0.5152551689758896,-0.20667992593050002,-0.43299226163513954
1791049001126028300,5.7980283203125,-0.23264263470470903,-0.4384153826624155,0.08925500385095365
1791049001135987200,5.8079873046875,0.2935366638675332,-0.4285241032451391,-0.5746737187586725
1791049001145945300,5.8179453125,0.5012374572783709,-0.8838537958294153,-0.14063330891062506
1791049001155903200,5.8279033203125,0.8590668528363108,-0.8325637535750865,-0.27007534345500167
1791049001165862400,5.8378623046875,0.3975970500618219,-0.6372118618667125,-0.5358158360434696
1791049001175820300,5.8478203125,0.5587301535651087,-0.8569523449003696,-0.27032051385510714
1791049001185778400,5.8577783203125,1.1030641175091267,-0.7439280232667923,-0.45901499350089575
1791049001195737300,5.8677373046875,1.2129951493024824,-0.8121534182310104,0.16779373043626547
1791049001205695500,5.877695556640625,0.6676824034541845,-0.07584931397140025,-0.222616659524478
1791049001215653400,5.8876533203125,-0.2016997994303703,-0.10654489648640156,-0.5267823059666902
1791049001225612300,5.8976123046875,0.02260696860551834,-0.24598668492436407,-0.29963337330743667
1791049001235570400,5.9075703125,0.5156365695089101,-0.8620715876102447,-0.46839123606812205
1791049001245528600,5.917528564453125,0.9924044791802763,-0.8182423827558756,-0.396939280272834
1791049001255487500,5.927487548828125,0.7093973926335573,-0.3768108671426773,-0.3591852671463042
1791049001265444900,5.93744482421875,0.29381928020119663,-0.3469739472836256,-0.5191613095689565
1791049001275402800,5.94740283203125,0.8493284258931875,-0.41025662514865396,-0.21734109374172983
1791049001285361700,5.957361572265625,0.9170978937834501,-0.23384090457856654,-0.34172446579020466
1791049001295319800,5.96731982421875,0.4785664835259318,-0.09719839147031306,0.09397397693055681
1791049001305278700,5.97727880859375,-0.2760007149159908,0.26193828729391094,-0.3957252648405731
1791049001315236600,5.987236572265625,-0.26963877866864205,0.2152723977088928,0.08227906389110722
1791049001325194500,5.997194580078125,0.03135579998940229,-0.05307400306165218,-0.09321985236131586
1791049001335153700,6.007153564453125,0.628374475416541,-0.02382745031118393,0.07005050976583733
1791049001345111600,6.017111572265625,0.5239964015752077,-0.03316343393325805,-0.01421588288443163
1791049001355069700,6.027069580078125,0.5233496281042694,-0.001830138036608696,-0.024282655865931882
1791049001365028600,6.037028564453125,0.4346875943109393,-0.06645195555090903,-0.12247245126008055
1791049001374986800,6.04698681640625,0.8350748596131801,-0.05135667774975299,0.14786493153143673
1791049001384944600,6.056944580078125,0.58090282240659,0.04155599922537803,0.030487858048453925
1791049001394903600,6.066903564453125,0.4088029192090034,0.41732291027307505,0.3766341954015195
1791049001404861700,6.07686181640625,-0.2498652799233794,0.2137736835837364,0.08012452533887698
1791049001414819800,6.08681982421875,0.25650164919793605,0.5410352146595716,0.3708039548780769
1791049001424778800,6.09677880859375,0.13711831392645835,-0.03869301100969314,0.02225718705346808
1791049001434736600,6.106736572265625,0.7450874224349856,0.16065174972712992,0.41352468703389167
1791049001444694800,6.11669482421875,0.3326750805571675,-0.16711597730517386,0.006112564596161246
1791049001454653700,6.12665380859375,0.6599588234648108,0.13363748607337475,0.3273977977413684
1791049001464611800,6.13661181640625,0.041463644766807556,-0.14299626604914664,0.11670120178172363
1791049001474570800,6.14657080078125,0.26784780359864235,-0.024569208589196204,0.3583154985744506
1791049001484529000,6.15652880859375,0.2699257789164781,-0.2188987715125084,0.1318089920045808
1791049001494486500,6.166486572265625,0.3817112064048648,-0.20541209795176982,0.2858436068805866
1791049001504445700,6.17644580078125,0.1481631472930312,-0.28815935474336146,0.0889018338985741
1791049001514403600,6.186403564453125,0.2649135037124157,0.13880407505631445,0.13028306107893586
1791049001524361700,6.19636181640625,0.37938802415430545,-0.2657084534823894,-0.0010432071763090789
1791049001534320600,6.206320556640625,0.43299423439651724,-0.0035147301226854323,0.10357979960311203
1791049001544278500,6.216278564453125,0.2992082797631621,-0.5277735820263624,0.4300034550826996
1791049001554236700,6.226236572265625,0.16840309450626373,0.1459486861139536,-0.017346910919155925
1791049001564195600,6.236195556640625,0.1203109715104103,-0.5735790553897618,0.49590983251482246
1791049001574153700,6.24615380859375,0.42617520203143355,-0.2916127100676298,-0.046080801439750935
1791049001584111600,6.256111572265625,0.5456435852378606,-0.8109341055691242,0.3915009251438081
1791049001594070800,6.26607080078125,0.18960837962031363,0.0443026675850153,0.10241583385765551
1791049001604028700,6.276028564453125,-0.19120353985726832,-0.43468847109377384,0.05656463992269709
1791049001613986800,6.28598681640625,0.32857086010873315,-0.34539340009391306,-0.025422774944920092
1791049001623945700,6.29594580078125,0.6990875955432653,-0.847083861836791,0.04622055697031319
1791049001633903600,6.305903564453125,0.3814090085878968,-0.18105857793986796,-0.15542627016380428
1791049001643862800,6.31586279296875,-0.19013211123347282,-0.007712181812524795,-0.0602672390339896
1791049001653820700,6.325820556640625,-0.30569530369490383,-0.099319036886096,-0.24456704565109683
1791049001663778800,6.33577880859375,0.12463117279708384,-0.34908874748051166,-0.26827877889443186
1791049001673737700,6.34573779296875,0.4314283002540469,-0.5703951646566391,-0.06623919871621765
1791049001683695900,6.35569580078125,0.11775339598208664,-0.14591478384435175,-0.1940225428007543
1791049001693653500,6.365653564453125,-0.0025637130081653595,-0.39491643267571924,-0.13418809656030498
1791049001703613000,6.375613037109375,0.28435177915394305,-0.23693010276556015,-0.2392029065357521
1791049001713570600,6.385570556640625,0.8583999133601784,-0.5412468115836382,0.08189752636076882
1791049001723528700,6.39552880859375,0.5300684149652719,-0.23132044619023798,-0.21543226444572208
1791049001733487600,6.405487548828125,0.0495481670230627,-0.08585632872283458,-0.033525910570099945
1791049001743445800,6.41544580078125,-0.32336598494201896,0.16866729840040207,-0.314606412968412
1791049001753403600,6.425403564453125,0.31046237196624277,-0.44782443152070045,-0.28115117474803697
1791049001763362600,6.435362548828125,0.6603729572236537,-0.19643910242319107,-0.19066994443722068
1791049001773320700,6.44532080078125,0.5117880773872137,-0.10479717603623867,-0.27904271296039224
1791049001783279600,6.455279541015625,0.2295201187700033,0.17735563176870345,-0.0604187946001999
1791049001793237800,6.46523779296875,0.33179858998358247,-0.07085223633646964,-0.13183269254057667
1791049001803195600,6.475195556640625,1.0174860212057828,-0.091650109693408,0.2190933807691559
1791049001813154800,6.48515478515625,0.6193541336148977,0.10226210460066795,0.03848154194978997
1791049001823112700,6.49511279296875,0.43407443084865804,0.3599468261033296,0.38924868923760947
1791049001833070800,6.50507080078125,-0.1037564348116517,0.23984569795131683,-0.11441955711795017
1791049001843029800,6.51502978515625,0.6124608669698238,0.039485622692108154,0.4530168490646407
1791049001852987600,6.524987548828125,0.9279545111015438,0.2413496727734804,0.1079579872878734
1791049001862945800,6.53494580078125,0.7956742848560213,0.15810323428809642,0.4896302773213014
1791049001872904700,6.54490478515625,0.03258388047963381,0.47220600858330725,0.15794999822145328
1791049001882862600,6.554862548828125,0.07508037542551756,0.3422925114691257,0.011074580050865188
1791049001892820500,6.564820556640625,0.47442222332805395,0.3128495593637228,0.4723156064376235
1791049001902779600,6.574779541015625,0.7694386043593286,-0.01507189692556858,-0.04179467595261521
1791049001912737500,6.584737548828125,0.5738020504906773,0.33694472070038317,0.25752043431904165
1791049001922695700,6.59469580078125,-0.1549099912047386,0.573319527670741,-0.266872784554027
1791049001932654600,6.604654541015625,-0.25585487572699783,0.6308750600606202,0.20303349571954457
1791049001942612700,6.61461279296875,-0.03269260155111551,0.5074409880936146,-0.04003540206197649
1791049001952571600,6.624571533203125,0.4162447596475482,0.07316051327884197,-0.11520674370657652
1791049001962529500,6.634529541015625,0.37484745811522,0.11035656372904777,-0.03428809058163315
1791049001972487700,6.64448779296875,-0.1163961361542344,0.4108271185129881,-0.14134612422194331
1791049001982446600,6.654446533203125,-0.3611725685060024,0.5604325735688209,-0.34861612500008193
1791049001992404700,6.66440478515625,-0.13724077126234768,0.2811637967675924,-0.19601749774394556
1791049002002362600,6.674362548828125,0.22064649196267128,0.08339666061103343,-0.30683088359609245
1791049002012321800,6.68432177734375,0.06359013637900351,-0.024071195939183235,-0.25671448823101817
1791049002022279700,6.69427978515625,-0.45883653166145083,0.3655658350288868,-0.29249625143650915
1791049002032237800,6.70423779296875,-0.6498363656401633,0.2644289350658655,-0.1974195648279041
1791049002042196700,6.71419677734375,-0.32668928414583204,0.010079495465755463,-0.21526671688677743
1791049002052155000,6.72415478515625,-0.07761398555636405,-0.22806641283035278,-0.1304438776638359
1791049002062112500,6.734112548828125,-0.16607582060247658,-0.16769523849785328,-0.28418774769864974
1791049002072071700,6.74407177734375,-0.6353285323381423,0.013869535398483275,-0.4133321601364761
1791049002082029600,6.754029541015625,-0.6176724641382694,0.08290858483314514,-0.3515546261373907
1791049002091987700,6.76398779296875,-0.35636546048521994,-0.294993584677577,-0.2723590339453891
1791049002101946600,6.773946533203125,-0.1775152062445879,-0.13632044154703615,-0.261934487901628
1791049002111904500,6.783904541015625,-0.44614656143635506,-0.14697861368358134,-0.49312929841820147
1791049002121863700,6.79386376953125,-0.4599743035197258,0.22154724019467828,-0.13705830910122022
1791049002131821600,6.803821533203125,-0.0007826748102903366,0.24455051464140415,-0.25094984202338383
1791049002141779700,6.81377978515625,0.27405630284994836,0.09874094473719597,-0.25965357389021665
1791049002151738600,6.823738525390625,0.27634587509185077,0.4515671251803636,-0.18959201300740242
1791049002161696800,6.83369677734375,-0.2974260725215077,0.4797428338289261,-0.15941201533172278
1791049002171654700,6.843654541015625,-0.4219213439792394,0.15022446373701095,-0.23816552631203083
1791049002181613600,6.853613525390625,-0.31904256878495213,-0.5232786086946726,-0.26204551052805036
1791049002191571700,6.86357177734375,0.08678717983216047,-0.3472176929116249,0.08694734796308912
1791049002201529900,6.87352978515625,-0.3091287852749228,-0.29621465090513227,-0.15386967010525987
1791049002211488800,6.88348876953125,-0.38372546883672476,0.03223229056298733,-0.012365113051747903
1791049002221446700,6.89344677734375,-0.2176519863218069,0.42098844704329963,0.2928139573498629
1791049002231404800,6.90340478515625,0.03993745811283588,0.05403378800451755,0.12292136407135985
1791049002241363700,6.91336376953125,-0.31271774967759847,-0.11408815147280692,-0.045326110614929346
1791049002251321900,6.92332177734375,-0.6447741138145328,0.29246903463602064,0.2839691182455979
1791049002261280800,6.93328076171875,-0.8978300064727663,-0.407244583851099,0.04724404566599987
1791049002271238700,6.94323876953125,-0.6901666224628686,-0.8263882798105477,0.19809552786070853
1791049002281196500,6.953196533203125,-0.4124140954434871,-0.5103256036192179,0.23915705810002982
1791049002291155500,6.963155517578125,-0.8482140349105,-0.2168453461140394,0.13390659447149372
1791049002301113600,6.973113525390625,-1.019483040241897,-0.32787001836299895,0.21728214836241677
1791049002311071700,6.98307177734375,-0.7985553932502866,-0.6641524757623672,0.26292499677632003
1791049002321030700,6.99303076171875,-0.5180775329202413,-0.25707155804038045,0.27643141621714457
1791049002330988300,7.00298828125,-1.1399281595259905,-0.5340414102494716,0.34941078250911084
1791049002340946400,7.012946533203125,-1.5238213861450551,-0.49649055501222605,0.43546084370575844
1791049002350905300,7.0229052734375,-1.3847954850316047,-0.5720043534189463,0.5132227133002132
1791049002360863500,7.032863525390625,-1.027284361642599,-0.8827303447574376,0.5539163600752129
1791049002370821400,7.0428212890625,-0.6886503726810217,-0.7388976278841495,0.4236005292378366
1791049002380780500,7.052780517578125,-0.8375777823448181,-0.46755730599462986,0.4377615218635648
1791049002390738400,7.062738525390625,-1.0660770336344838,-0.0024777882903814314,0.29404998368453233
1791049002400697300,7.072697265625,-0.8167936452522874,-0.1193564472645521,0.5140247503980994
1791049002410655500,7.082655517578125,-0.33056700236201286,-0.18998773432672023,0.56887336191684
1791049002420613600,7.092613525390625,-0.287794613084197,-0.2667734523653984,0.5987004910342395
1791049002430572500,7.102572509765625,-0.7215832127287983,-0.0009773205995559692,0.4967322548136115
1791049002440530400,7.112530517578125,-0.9320067091017961,0.06693184802234173,0.43301184311844404
1791049002450488600,7.122488525390625,-0.6799015412971376,0.12972878819704056,0.29245358133856203
1791049002460447500,7.132447509765625,-0.13232406538724897,0.08530454005897045,0.1739771317789331
1791049002470405600,7.142405517578125,0.033873920290172096,0.23015549406409264,0.0975490315388888
1791049002480363500,7.152363525390625,-0.2534358318865299,0.4614391153752804,-0.24854281741427256
1791049002490322700,7.16232275390625,-0.4442363439008593,0.5211801751106977,-0.14841980720153078
1791049002500280600,7.172280517578125,-0.16699907292723654,0.45695875509083267,-0.3011789405153133
1791049002510238500,7.182238525390625,0.004750993919372558,-0.05153787953555584,-0.31069442715644835
1791049002520197600,7.19219775390625,0.11349018557965755,0.11063713423609733,-0.413541090179421
1791049002530155500,7.202155517578125,-0.5083727159857749,0.22234160544276235,-0.5191562315350398
1791049002540114400,7.212114501953125,-0.615746756772697,0.35473464441299435,-0.5589513220351189
1791049002550072300,7.222072265625,-0.5019806768611074,0.028700024783611295,-0.828479918327555
1791049002560030500,7.232030517578125,0.05735328781604766,0.12126023505926131,-0.7100519110195338
1791049002569989400,7.2419892578125,0.06150310097187757,0.04165127629339695,-0.7327076141376048
1791049002579947500,7.251947509765625,-0.2400488193079829,-0.051745384806394575,-0.8723184024669229
1791049002589905400,7.261905517578125,-0.24487930820435283,0.11341127512454986,-1.0453274563986807
1791049002599864600,7.271864501953125,-0.3612988252341747,-0.13465630772709847,-1.036083461908996
1791049002609822500,7.281822509765625,-0.1633183385878801,-0.15947802977263925,-1.0523032136954367
1791049002619780600,7.291780517578125,-0.07668021183758973,-0.010673369705677033,-0.9652853669125586
1791049002629739500,7.301739501953125,-0.03674479955136776,0.27423545880913736,-0.7007484414275735
1791049002639697700,7.31169775390625,-0.23263737400770185,0.2923796027868986,-0.8343866581533104
1791049002649656600,7.321656494140625,-0.030206922215223312,0.4091799358278513,-0.5640289906255901
1791049002659614500,7.331614501953125,-0.0346469504892826,0.6595324147462844,-0.6289314517121761
1791049002669572600,7.341572509765625,-0.29142390949726105,0.2642693605899811,-0.59590315193329
1791049002679531500,7.351531494140625,-0.4189075491160154,0.18792904823124407,-0.7123550733953714
1791049002689489700,7.36148974609375,-0.6101940910816193,0.34579029045701026,-0.6943645125441252
1791049002699447600,7.371447509765625,-0.8315981234133243,0.5699217019259929,-0.5943107681753114
1791049002709406700,7.38140673828125,-0.8005877758607268,0.7474059285104274,-0.5328873813761398
1791049002719364400,7.3913642578125,-0.36099399706870317,0.4117851498901844,-0.36850429963357745
1791049002729322500,7.401322509765625,0.048159050752222536,-0.23115035032033918,-0.2135371531478129
1791049002739281400,7.411281494140625,0.33411797284185885,0.22556699723005294,-0.3238626093525439
1791049002749239600,7.421239501953125,-0.09973901586383581,0.5103600904107094,0.26396522654425353
1791049002759197400,7.431197509765625,-0.6769470754057169,0.21485271099209785,-0.20654192396560683
1791049002769156400,7.44115625,-0.5466437021911144,-0.07727963903546332,-0.0018108488142490385
1791049002779114500,7.451114501953125,-0.2534501526728272,0.20720482658743858,0.006492878283793106
1791049002789073400,7.461073486328125,-0.6380038890272378,0.18415245230197905,0.14264966283487154
1791049002799031600,7.471031494140625,-0.9753846630573272,0.08980126695632934,0.2878577414482832
1791049002808989400,7.480989501953125,-0.6246411341071129,0.02062836200892925,0.24185948545914143
1791049002818948600,7.490948486328125,0.07838643123358488,-0.3122416565984487,0.7603191860973835
1791049002828906500,7.500906494140625,0.3306163944616914,-0.5328372951567173,0.5458719141010194
1791049002838864600,7.51086474609375,-0.09976415030509232,-0.44483460205495357,0.7133786442894489
1791049002848823600,7.520823486328125,-0.38051819722801444,-0.26864859858751294,0.23885025717318056
1791049002858781700,7.53078173828125,-0.5568880328297615,-0.4791425298482179,0.534826167418994
1791049002868739600,7.540739501953125,-0.20120529391169548,-0.42711891262233254,0.3296459419943392
1791049002878698500,7.550698486328125,-0.37792292003780603,0.04096738568246364,0.4752775249831378
1791049002888656600,7.56065673828125,-0.7605518258094787,-0.14260697447061538,0.4421420750353485
1791049002898614500,7.570614501953125,-0.5369254412531852,-0.4767337151408195,0.7938255151841789
1791049002908573700,7.58057373046875,-0.11484130792766808,-0.38788404982089997,0.967273106663674
1791049002918531300,7.59053125,-0.1588923388391733,-0.6597948650747537,0.8275160417314619
1791049002928489500,7.600489501953125,-0.4737894783824682,-0.009401450073719024,0.8550533063460141
1791049002938448400,7.610448486328125,-0.7336050744339824,-0.1051484736919403,0.6313857860617339
1791049002948406500,7.620406494140625,-0.6892077143028378,-0.2584106976896524,0.5892872043922543
1791049002958365400,7.630365478515625,-0.5911179269507527,-0.14841536848843095,0.62954899908863
1791049002968323600,7.640323486328125,-0.6320315366193652,0.4217950872510671,0.38885282178781927
1791049002978281500,7.650281494140625,-0.9071902477532625,0.12084054834246635,0.3004761990734376
1791049002988240400,7.660240478515625,-0.6467237865775823,-0.030492168897390363,0.11655695273913443
1791049002998198500,7.670198486328125,-0.21240794818848371,-0.20391630643606184,0.5585090581603348
1791049003008156400,7.680156494140625,-0.3998164796769619,0.07848433865010739,0.18530670037101954
1791049003018115600,7.690115478515625,-1.122353047607839,0.22743629823327063,0.28926446644105014
1791049003028073500,7.700073486328125,-1.0839183952733873,0.533611786660552,-0.014149831910897045
1791049003038031600,7.710031494140625,-0.6720394296199083,0.5735849006086587,0.16374043645747005
1791049003047990500,7.719990478515625,-0.3762959033578634,0.2902963667720556,-0.04042473017312586
1791049003057948700,7.72994873046875,-0.4543289911091327,0.6269698693156242,-0.0008513561323285102
1791049003067907600,7.739907470703125,-0.9126888451695442,0.8460171093881129,-0.3596165712356567
1791049003077865700,7.74986572265625,-0.8545639884591102,0.018255203136801717,-0.2646470347959548
1791049003087823600,7.75982373046875,-0.479530360122025,0.03253682646751404,-0.618363076750934
1791049003097782500,7.769782470703125,-0.39977790123224255,-0.027129414466023443,-0.1621243247640319
1791049003107740400,7.779740478515625,-0.8359785304546355,-0.08331891919970512,-0.36187151055559513
1791049003117698300,7.7896982421875,-1.068357545787096,0.038653263521194456,-0.22334681869624182
1791049003127657500,7.799657470703125,-0.7644535094231366,0.3683621877491474,-0.3332487157266587
1791049003137615400,7.809615478515625,-0.6943652431964874,0.2456055766522884,-0.34496454368997365
1791049003147573500,7.819573486328125,-0.6711828127905726,0.14900047490000723,-0.0009184391523245722
1791049003157532400,7.829532470703125,-0.46543899866640565,0.22356267167031763,-0.5658531373128295
1791049003167490600,7.839490478515625,-0.35308044746518136,0.23568740922808645,-0.039168355170171705
1791049003177448400,7.849448486328125,-0.5408902532309293,-0.1356260295420885,-0.39487168021854013
1791049003187407600,7.85940771484375,-0.5089224588230252,0.3609323300093412,-0.5944629265297204
1791049003197365500,7.869365478515625,-0.6107341893076896,0.7372288178890943,-0.33358879786860196
1791049003207324400,7.879324462890625,-0.5988391688525676,0.3377536989957094,-0.3788623928450048
1791049003217282600,7.889282470703125,-0.19938100109398363,0.25267244629859925,-0.29455113813970235
1791049003227240400,7.899240478515625,-0.14858137270510197,0.7221206806063651,-0.39466961830779906
1791049003237199600,7.90919970703125,-0.6153992585092782,0.42789749577939507,-0.06384361794972791
1791049003247157500,7.919157470703125,-0.2921472553357482,-0.07291618312895297,-0.15964940428417176
1791049003257115600,7.92911572265625,0.3171627463877201,0.255884394082427,-0.23501374775022266
1791049003267074600,7.939074462890625,0.3046723903879523,0.2802835068017244,-0.07270003789393231
1791049003277032700,7.94903271484375,-0.41109892119169233,0.3943342488735914,-0.10066590318409725
1791049003286990600,7.958990478515625,-0.7089294828608632,0.4221148207247257,-0.10220526898005046
1791049003296949500,7.968949462890625,-0.2994862199217081,0.7961322577565908,0.12216201533772982
1791049003306907600,7.97890771484375,-0.19942717832326887,0.4873240827381611,0.257630068705976
1791049003316866600,7.988866455078125,-0.1806955898463726,0.13770634294748305,0.07531958187571726
1791049003326824700,7.99882470703125,-0.27381664887517687,0.2829156088709831,0.27893819313999263
1791049003336782600,8.008782470703125,-0.16348638863116502,0.21441139696538447,-0.1106737216531299
1791049003346741800,8.01874169921875,-0.06558569411039351,-0.22589374496638773,0.16256861619912086
1791049003356699600,8.02869970703125,-0.03617605975270271,0.14671148717999458,-0.17663878873623906
1791049003366657800,8.03865771484375,-0.4571379110500216,0.2363169393032789,0.20034783683214336
1791049003376616700,8.04861669921875,-0.8267965683504939,0.5576403125017881,0.11299589925669133
1791049003386574800,8.058574951171876,-0.897856894479692,0.24772563754618165,0.274344508674182
1791049003396532500,8.068532470703126,-0.4443696148917079,0.03355857073068619,0.2125679245231673
1791049003406491600,8.07849169921875,-0.4344216368511319,-0.14379413842856884,0.3791190710198134
1791049003416449500,8.088449462890624,-0.49823155346065756,0.043998131680488585,0.02157034643362276
1791049003426407700,8.09840771484375,-0.7835778966099023,-0.07621814728379249,0.27243768867217005
1791049003436366600,8.10836669921875,-0.520672517849505,0.009723521634936332,0.13939056970737873
1791049003446324500,8.118324462890625,-0.4203267682641744,-0.2647504221051931,0.13387426310447043
1791049003456283600,8.12828369140625,-0.39083004014492034,-0.29652386298477645,0.025537003308581187
1791049003466241500,8.138241455078125,-0.45149844385832544,0.0006336217284202575,0.2515936015533283
1791049003476199700,8.14819970703125,-0.3902019713744521,0.13700491667985915,0.280664249747619
1791049003486158600,8.15815869140625,-0.2364788518667221,0.07429097861349582,0.021978452310478312
1791049003496116700,8.16811669921875,-0.2899845243439078,0.09216565800011157,0.37784105044063176
1791049003506074600,8.17807470703125,-0.2998448241010308,0.13809914165735243,0.20952643793541936
1791049003516033500,8.188033447265624,-0.617533347928524,-0.15953940457105636,0.1597631303243339
1791049003525991700,8.19799169921875,-0.4469850580871105,-0.19362872117757796,-0.041634471289068456
1791049003535949800,8.20794970703125,-0.3315320480018854,-0.2731827348858118,0.11931370410136878
1791049003545908700,8.21790869140625,-0.30876492039859293,-0.1098977140456438,0.03650191243989393
1791049003555866600,8.22786669921875,-0.6497355356141924,-0.05400514643192291,-0.011886608819803222
1791049003565825800,8.23782568359375,-0.688302874417603,0.14948738163411615,0.06889737594164907
1791049003575783700,8.24778369140625,-0.27502865501344204,0.050643561044335365,0.3125247478561476
1791049003585741800,8.257741943359376,-0.17532032654881477,-0.3481149340122938,-0.010708733280003071
1791049003595700700,8.26770068359375,-0.17928426174372433,-0.325652342313528,-0.2589785607054829
1791049003605658600,8.27765869140625,-0.5555804573625326,-0.07019757182002068,0.22315270262993872
1791049003615616500,8.287616455078124,-0.768367467996478,-0.03966273282468319,-0.11629446587804704
1791049003625575400,8.297575439453125,-0.8480991763591765,-0.27879122241735455,-0.2654723249052651
1791049003635533600,8.307533447265625,-0.6721972505301237,-0.05173369436860084,-0.09421798742003738
1791049003645491700,8.31749169921875,-0.5978308685928583,0.14273790737390518,-0.10888160493881441
1791049003655450600,8.32745068359375,-0.703687198293209,-0.33221769217848773,-0.47823911473508923
1791049003665408500,8.337408447265625,-0.37540363069325683,-0.23241233308017253,-0.4472090030360967
1791049003675366700,8.34736669921875,-0.17920213641822336,-0.22762276071608065,-0.36615430244132874
1791049003685325600,8.35732568359375,-0.44524961259663104,-0.27162439952790735,-0.3609558935480192
1791049003695283700,8.36728369140625,-0.5861147118359804,-0.2628396200478077,-0.47827389378752555
1791049003705242600,8.37724267578125,-0.4729454287737608,-0.3471346908032894,-0.4084435478447005
1791049003715200800,8.38720068359375,-0.3538485092282295,0.0033171617239713667,-0.2111337452678941
1791049003725158700,8.39715869140625,-0.6674550244390964,0.02567570852637291,-0.4099985222017392
1791049003735117600,8.40711767578125,-0.6379188410922885,0.11803308970630168,-0.44122598310373723
1791049003745075700,8.41707568359375,-0.3015180180102587,0.21749416541159153,0.04902644470389932
1791049003755033900,8.427033935546875,-0.11401683980226517,0.041889176702499385,-0.5298205046188086
1791049003764992800,8.43699267578125,-0.16374124017506836,0.37764614892303944,-0.21943236693255602
1791049003774950700,8.44695068359375,-0.5106809929281473,0.31045769579112525,-0.37968043122962114
1791049003784908500,8.456908447265626,-0.3128814158067107,0.574181112936139,-0.27202898000711573
1791049003794867700,8.46686767578125,-0.24266017085015773,0.22009061164557933,-0.2600623738868162
1791049003804825600,8.47682568359375,-0.033684242936968804,0.33110417797863484,-0.28909745757738126
1791049003814784500,8.486784423828125,-0.3255406986325979,0.5512982499986887,-0.060717416787170804
1791049003824742700,8.49674267578125,-0.3731175655826926,0.85887249930799,-0.12752682117335498
1791049003834700500,8.506700439453125,-0.38896921470910306,0.6373457173794508,0.0843079576365184
1791049003844659500,8.516659423828125,-0.09562368949949741,0.31331250070035455,-0.1828079423578456
1791049003854617600,8.52661767578125,-0.20682401057630775,0.6265086815446614,0.30535734044481067
1791049003864575700,8.53657568359375,-0.5444561290189623,0.843864899790287,-0.03807674684145022
1791049003874534700,8.54653466796875,-0.7481748670563101,0.3572819908082485,-0.06850000608793926
1791049003884492500,8.556492431640624,-0.24177052853405473,0.34962826118469237,0.3349562502969056
1791049003894450700,8.56645068359375,-0.08871873241662978,0.436269602805376,0.2320894578013569
1791049003904409600,8.57640966796875,-0.4832321372494101,0.39972120260894295,0.09214312650789507
1791049003914367700,8.58636767578125,-0.7127832356795668,0.42725393717885013,0.07508660423690453
1791049003924326700,8.59632666015625,-0.3145212919682264,0.47454935683906074,0.3688264077274129
1791049003934284800,8.606284912109375,0.010668985791504382,0.5122247152388095,0.12407771276594139
1791049003944242700,8.61624267578125,-0.44741877332925795,0.37069969078600407,-0.0911233184734825
1791049003954201600,8.62620166015625,-0.5349029955148696,0.48992228253781794,0.2271773002372123
1791049003964159700,8.63615966796875,-0.519639083148539,0.20369068098664284,0.19241702556656673
1791049003974117600,8.64611767578125,-0.09724398417770862,0.30825463278889653,0.1799391271895729
1791049003984076800,8.656076904296874,-0.30536621787101026,-0.1535597456395626,-0.06404820517769548
1791049003994034400,8.666034423828124,-0.3058294514685869,0.2366477786928415,0.28581383279683065
1791049004003992600,8.67599267578125,-0.5140697585836053,-0.10637070896327495,-0.1651562398058362
1791049004013951500,8.685951416015625,-0.5142980143815279,0.03736848440766334,-0.08584554246733896
1791049004023909600,8.69590966796875,-0.7485515914142131,0.20496903035938738,-0.18321604823470114
1791049004033868500,8.70586865234375,-0.6256999955102801,0.059521279504895205,0.03418234920181567
1791049004043826700,8.71582666015625,-0.6233288824647665,-0.2748655734062195,-0.3427053300537169
1791049004053784600,8.72578466796875,-0.4308309188827872,-0.17324352027475834,-0.09052117872871458
1791049004063743500,8.735743408203126,-0.6539063915580511,0.19836685561537742,0.09695044459123164
1791049004073701600,8.74570166015625,-1.04382516207695,0.3515034074068069,0.2582469219626859
1791049004083659800,8.75565966796875,-1.032696449819207,0.18897709597945211,-0.1323886002571322
1791049004093618700,8.76561865234375,-0.6705056441813707,-0.07112929971218108,0.053614494013367216
1791049004103576600,8.77557666015625,-0.48069180511683224,-0.020843466064333915,0.15802755696969106
1791049004113534700,8.78553466796875,-0.807991622376442,0.012044658058881759,-0.14739473847011103
1791049004123493600,8.79549365234375,-1.0832605158865452,0.11537819128334521,-0.27421848940802734
1791049004133451800,8.80545166015625,-0.8520528824210166,-0.012355039182305336,-0.184186391104199
1791049004143409700,8.81540966796875,-0.6589341565921902,-0.24122166247963903,0.06705876690421719
1791049004153368800,8.825368896484376,-0.8135384428486228,-0.2852262239009142,-0.28078374794144184
1791049004163326700,8.83532666015625,-1.1509645173251628,-0.16382745715379715,0.1077782924725674
1791049004173285600,8.84528564453125,-1.2709113316982983,-0.04202186317145824,-0.07247493303432129
1791049004183243800,8.855243896484374,-1.12304161439389,-0.015555296528339386,0.15090810775277205
1791049004193201700,8.86520166015625,-0.843853793874383,-0.4262637570977211,-0.3537770514272153
1791049004203160800,8.875160888671875,-0.734323744097352,-0.4002975411921739,-0.12084685021908953
1791049004213118500,8.885118408203125,-0.7285656189620494,0.035703181543946264,-0.05170046795243397
1791049004223076600,8.89507666015625,-1.118893262542784,-0.09177285929024219,-0.7301112409688532
1791049004233035500,8.905035400390625,-0.9333715677142143,-0.1308773737102747,-0.1513953432804439
1791049004242993700,8.91499365234375,-0.742949533623457,-0.6938964566409588,-0.6564430704288184
1791049004252951600,8.92495166015625,-0.5369447304755449,-0.3895902692168951,-0.2596231422193348
1791049004262910700,8.93491064453125,-0.7521116219833492,0.07966507286727428,-0.5791955070320517
1791049004272869600,8.94486962890625,-1.022497127366066,0.3653121525287628,-0.5695891455033794
1791049004282828500,8.95482861328125,-0.8184346904575824,0.42085342248678204,-0.16640698878560214
1791049004292786700,8.96478662109375,-0.5547954444646835,0.07648001309037208,-0.24822726692538707
1791049004302744600,8.97474462890625,-0.5942667463704944,0.14260463638305662,-0.22796434069536625
1791049004312703500,8.984703369140625,-0.8591258895471692,0.28380115953385826,-0.49245490628797556
1791049004322661600,8.99466162109375,-1.0576812534719704,0.461437946331501,-0.011598699823091738
1791049004332619800,9.004619873046876,-0.772013715544343,0.02109948665201664,-0.4194961991915479
1791049004342578700,9.01457861328125,-0.32900340630710123,-0.15378829369843006,-0.6324101606734097
1791049004352536600,9.02453662109375,-0.286936827211082,0.4721978252768516,-0.0011956349587766452
1791049004362494700,9.03449462890625,-0.728064683702588,0.5101683672308922,-0.4903008335266262
1791049004372453600,9.04445361328125,-0.9854577287822961,0.590250204205513,-0.2958730161269195
1791049004382411800,9.054411865234375,-0.6811901198029517,0.6334048707991838,-0.4545853039577603
1791049004392370700,9.06437060546875,-0.6457052571848034,0.41366906394064423,-0.0023666788989910857
1791049004402328800,9.074328857421875,-0.825994312056899,0.4999789816498756,-0.18961733011174947
1791049004412286700,9.08428662109375,-0.8637585177838801,0.7407593301028013,-0.3326479368219152
1791049004422245600,9.09424560546875,-0.4827165889427066,0.5923860471904278,-0.15629536288222298
1791049004432203500,9.10420361328125,-0.06376578520685434,0.5275368506610393,0.3356085036605596
1791049004442161700,9.11416162109375,-0.18013211074471472,0.31773382427394387,-0.3450411160575226
1791049004452120600,9.12412060546875,-0.5878486960217356,0.702217710262537,-0.3004882183047943
1791049004462078500,9.134078369140624,-0.9175333625912666,1.1240227343857288,0.02857634588830406
1791049004472036600,9.14403662109375,-0.8226026237919927,0.7307499772638082,0.16655397777454928
1791049004481995500,9.15399560546875,-0.4702797166958451,0.3712684305846691,-0.07672358518843539
1791049004491953700,9.16395361328125,-0.48156508082002397,0.0965565864354372,0.12440101730301975
1791049004501912600,9.17391259765625,-0.5769868180066346,0.6502478690505027,-0.06200368460488971
1791049004511870700,9.18387060546875,-0.9721034494295716,0.450736519575119,-0.04584322525763418
1791049004521828600,9.19382861328125,-0.6265948985233902,0.2503594931811094,0.17666580460732803
1791049004531787500,9.20378759765625,-0.20309651448577642,0.2134258930593729,0.054612912199879064
1791049004541745700,9.21374560546875,-0.3961977046579122,0.5009919580847024,0.1642821786513552
1791049004551703800,9.223703857421874,-1.0489973040178417,0.4222890082478523,0.07091653374433517
1791049004561662700,9.233662841796875,-1.0351944041147827,0.34796997258365153,0.030801148081594145
1791049004571620600,9.24362060546875,-0.6150143508449196,0.34851416246294975,0.044852287124679424
1791049004581578800,9.253578857421875,-0.3501832647189498,-0.05139700976014137,0.24066401033056897
1791049004591537700,9.26353759765625,-0.4770131166040897,-0.10423135884702205,-0.0031996043254854155
1791049004601495800,9.273495849609375,-0.9264823927223682,0.6559042873769998,-0.12083763486617244
1791049004611454700,9.283454833984376,-1.182883504155278,0.7061363450109959,-0.04799096417631954
1791049004621412900,9.293412841796876,-1.055401325841248,0.2661538591623306,0.17241240321286022
1791049004631370500,9.30337060546875,-0.7992705557823181,-0.18744097245335578,-0.27841186771094795
1791049004641329400,9.313329345703124,-0.6108873340427875,-0.15526128886044024,-0.09737423209440894
1791049004651287600,9.32328759765625,-0.9952101842507719,0.1888128453284502,0.05792433373623061
1791049004661245700,9.33324560546875,-1.1933312484115361,-0.2864472901284694,-0.08213743606386706
1791049004671204600,9.34320458984375,-0.7767860445126891,-0.04476268631219864,0.0793672041655518
1791049004681161700,9.35316162109375,-0.6310273280128836,0.15280512787997722,-0.03312258589963894
1791049004691120600,9.36312060546875,-0.6251373931914568,0.1509194602638483,-0.033684578580397646
1791049004701078500,9.37307861328125,-0.980066098871827,0.2896475474745035,0.2665383649678901
1791049004711037700,9.38303759765625,-1.2997130632907152,0.08816519018709659,-0.018035443455877247
1791049004720995600,9.39299560546875,-1.0977923145860433,-0.009244798207283019,0.1633651186053641
1791049004730953700,9.40295361328125,-0.6999772378593683,0.27899288246929643,0.013395048612885875
1791049004740912600,9.41291259765625,-0.9646241995900868,-0.09530804767906666,0.2811673038989305
1791049004750870800,9.422870849609374,-1.1094593715041876,-0.1769131486982107,-0.08768326102220453
1791049004760828700,9.43282861328125,-0.9021098757490515,0.0391132822483778,0.01501466401272919
1791049004770787800,9.442787841796875,-0.7746627687484026,0.17707564578354357,0.1548093438418582
1791049004780745700,9.452745849609375,-0.9851923558443784,-0.023781273081898688,0.13154051379412413
1791049004790704600,9.46270458984375,-0.910106135199964,0.16015724420845506,-0.03656486042417818
1791049004800662800,9.472662841796875,-0.8515966630861163,0.34897944188714025,-0.10570629937094636
1791049004810620700,9.48262060546875,-0.8597805540636181,0.29564415754079815,0.13599744753721169
1791049004820579600,9.49257958984375,-0.8774342841759324,-0.0460235000282526,0.005648963389114942
1791049004830537500,9.502537353515624,-0.5925657876715064,-0.020636545315384863,-0.11378765242258086
1791049004840495600,9.51249560546875,-0.43688481209427116,0.048969490352272986,-0.24749615790555252
1791049004850454500,9.52245458984375,-0.6061681965664029,0.3575479482680559,0.19470928295589982
1791049004860412700,9.53241259765625,-0.6878931245729327,-0.0029062428355216977,-0.06196617930582724
1791049004870370600,9.54237060546875,-0.5115148134037852,0.3457265775710344,0.015698071708116913
1791049004880329700,9.552329833984375,-0.7801148966744542,0.5518704969286918,-0.14245939182662404
1791049004890287600,9.56228759765625,-1.0698679503500461,0.5982704290539026,0.16357934587793424
1791049004900245800,9.572245849609375,-1.1591136292502284,0.005415595307946205,-0.23999796590358016
1791049004910204700,9.58220458984375,-0.5476543405383825,-0.017944237491488456,-0.1737159600920975
1791049004920162600,9.59216259765625,-0.4498752265706658,0.3090320469021797,-0.31948538064900783
1791049004930121700,9.602121826171874,-0.7210153497129679,0.19218729019761085,-0.07891619986188597
1791049004940079600,9.61207958984375,0.046130467534065245,-0.24216741889715193,-0.1410633526246529
1791049004950037800,9.622037841796875,0.05310907437503338,-0.24444997687637804,-0.13932223544521258
1791049004959996700,9.63199658203125,-0.0005438976183533668,0.2748264104396105,-0.19814453636789695
1791049004969954800,9.641954833984375,-0.724771195115149,0.2486860070109367,0.12991863908017984
1791049004979912700,9.65191259765625,-0.9731254859536885,0.2669008781373501,0.12813580165086313
1791049004989871600,9.66187158203125,0.014373393267393111,-0.11694997064471244,0.0039931681392597965
1791049004999830800,9.671830810546876,-0.09708294839709997,-0.174202720695734,-0.1262684277432505
1791049005009788700,9.68178857421875,-0.5499611561760306,-0.3366203110516071,-0.3467150406191125
1791049005019747800,9.691747802734374,-0.49988750397413967,0.1429763923048973,-0.49083388095740227
1791049005029705700,9.701705810546875,-0.37013036646544933,0.01840893239378929,-0.24206691766474395
1791049005039663600,9.71166357421875,0.005913315697014331,-0.15633388652801514,0.1445829963844735
1791049005049622500,9.72162255859375,-0.15056348643302916,-0.3888321443259716,-0.04871440134635195
1791049005059580700,9.73158056640625,-0.30760522896945475,0.3781546829670667,0.07134953660042956
1791049005069539600,9.74153955078125,-0.786601628345251,0.12427519896626471,-0.031117367574048694
1791049005079497500,9.75149755859375,-0.4430851280391216,0.02389876198172569,0.16386820928929371
1791049005089455600,9.76145556640625,0.05640753139853477,-0.3846615806430578,0.032514514171006155
1791049005099414500,9.77141455078125,0.3918868557214737,-0.08803191919624805,-0.15856955489190294
1791049005109372700,9.78137255859375,-0.17807400917112826,0.2954758152365684,-0.08228331080796196
1791049005119330600,9.79133056640625,-0.7061456973612308,0.07301438280642032,-0.013477001550095156
1791049005129289700,9.801289794921875,-0.5513961574152112,0.3127303168982267,0.03121795100484742
1791049005139247600,9.81124755859375,-0.016142741027474403,0.11980652911961077,-0.2555726429858245
1791049005149205800,9.821205810546875,0.08752689228355884,0.04409691587984561,0.22487256695879623
1791049005159164700,9.83116455078125,-0.29972207450419663,-0.21178221750557422,0.09141808190266601
1791049005169122800,9.841122802734375,-0.48289895977228875,-0.14795008906424045,-0.1455260493882466
1791049005179081700,9.851081787109376,-0.3511597085356712,0.12064940968453883,-0.23162216908317057
1791049005189039600,9.86103955078125,-0.2783615988284349,-0.12076631406247615,-0.03138243226800114
1791049005198997800,9.870997802734376,-0.04493132087737321,-0.31358313433527946,0.014976916685071773
1791049005208956700,9.880956787109374,-0.060687400674819945,-0.23038696473240852,-0.1438521430929657
1791049005218914800,9.890914794921875,-0.08667933554351329,0.4041682451456785,-0.23269438315825536
1791049005228872400,9.90087255859375,-0.5039686358079314,0.17554653652012348,0.09922333969296887
1791049005238831900,9.910831787109375,-0.25837708768099543,0.12593991730809212,0.24296574793430042
1791049005248789500,9.92078955078125,0.028114041589200493,-0.16871990537047385,-0.01474277685234556
1791049005258747600,9.93074755859375,0.27044834148585795,0.38512978267669673,-0.02665606361652026
1791049005268706800,9.940706787109375,-0.3801277366057038,0.10177812047600746,0.2208013537308201
1791049005278664700,9.950664794921876,-0.25259616619199515,-0.13268062373995781,0.17274068531915546
1791049005288623600,9.96062353515625,0.1106187217965722,-0.23750994848012924,-0.2016992331747897
1791049005298581500,9.97058154296875,0.42721740456074475,-0.08541384565234184,0.11336854109452105
1791049005308539600,9.98053955078125,0.11906418631970882,0.2010036338597536,0.09608274924545548
1791049005318498600,9.99049853515625,-0.335115459446609,0.22317454913556575,0.14159007991249672
1791049005328456700,10.000456787109375,-0.29056173970997334,0.33284488416612146,0.0756829946608981
1791049005338414600,10.01041455078125,-0.16565408805906773,0.14918810642659663,-0.05235690886743832
1791049005348373800,10.020373779296875,-0.04647358188331127,-0.13134616026580334,0.12232391876801847
1791049005358331600,10.03033154296875,0.06409136389940977,-0.4594751218259334,0.09068785879882052
1791049005368289800,10.040289794921875,0.11493687725663185,-0.16995383107960224,-0.024539021230197976
1791049005378248700,10.050248779296876,0.182664259570837,0.40260990978777406,-0.0948225200512912
1791049005388206800,10.060206787109376,-0.3023217356085777,0.15268997706770895,0.18142145643550903
1791049005398165800,10.070165771484374,0.04427344149053097,0.2051689368456602,0.371227842845954
1791049005408123600,10.08012353515625,0.12280571093559264,0.10797112989723681,-0.01743372954443912
1791049005418081800,10.090081787109375,0.13285861065536736,0.34494740989208217,0.042276527485693806
1791049005428040700,10.100040771484375,-0.33768355636894704,0.11984569208621978,0.33798356222882864
1791049005437998800,10.109998779296875,-0.17247604303359984,-0.044045477953553194,0.1930882210927084
1791049005447956700,10.119956787109375,0.09700696055144072,0.08250818733870982,0.06569810954288113
1791049005457916000,10.129916015625,0.01033405474871397,0.06206745685636997,-0.026148863013053778
1791049005467873500,10.13987353515625,-0.307075067615509,0.03771335232257843,0.29932792408745734
1791049005477831700,10.149831787109376,-0.013890870447456835,0.11279694261848926,0.17854703351035714
1791049005487790600,10.15979052734375,0.17096709977537392,0.19164719197154043,0.09230729496050626
1791049005497748700,10.169748779296874,0.1213715864792466,0.13684066602885722,0.008853649173449957
1791049005507707600,10.179707763671875,-0.11604016232341527,0.14921265634596348,0.39213980756923555
1791049005517665500,10.18966552734375,-0.10830810676664113,0.2506909170925617,0.2408030534750782
1791049005527623700,10.199623779296875,-0.062092006775736806,0.2331540913581848,0.05658680608873255
1791049005537582600,10.20958251953125,-0.12784399736374616,0.18196634043455123,0.07544154602126218
1791049005547540700,10.219540771484375,-0.13698650424033404,0.4107821103274822,0.40799437930509447
1791049005557498600,10.22949853515625,-0.15354484033137558,0.03317746245861053,0.23420639515640213
1791049005567457800,10.239457763671876,-0.03961714011728763,0.0889753375262022,0.03637924047487322
1791049005577415700,10.249415771484376,-0.10997896258831023,0.04072247101068496,0.11573890522136353
1791049005587373800,10.259373779296874,-0.12889087606817484,0.3656166884332895,0.4038854096163064
1791049005597332700,10.269332763671875,-0.35732027699202296,-0.08925356994569301,0.32463837949801233
1791049005607290600,10.27929052734375,-0.20360271044224498,0.2026338654100895,0.3134979402698576
1791049005617249800,10.289249755859375,-0.5033835293963551,0.069503159815073,-0.09921367681547999
1791049005627207700,10.299207763671875,-0.4632406118392944,0.12081716746687889,0.48428011193238196
1791049005637165800,10.309165771484375,-0.24825229176878927,-0.12854688493609429,0.0444524741521338
1791049005647124700,10.319124755859375,0.028257833974063395,-0.18450082734823225,0.3182125111689791
1791049005657083000,10.329082763671876,-0.15797960790842772,0.1726046378493309,-0.09563018317236564
1791049005667040500,10.33904052734375,-0.6086681966885924,0.21472002452313899,0.21717417620960622
1791049005676999700,10.348999755859374,-0.4516688319891691,0.26826106057465077,0.31015334254968907
1791049005686957600,10.35895751953125,-0.26322160510271786,-0.15170271959602832,0.12969094953783786
1791049005696916500,10.36891650390625,-0.04552607190012931,0.20028174932599066,0.2101669460623525
1791049005706874600,10.37887451171875,-0.49700522653609513,-0.02144143195748329,0.4222747239941731
1791049005716832500,10.38883251953125,-0.4662988303661346,0.26535072608590127,0.2758629869457334
1791049005726791700,10.398791748046875,-0.3422793597266078,0.10638473748862742,0.23468758453577757
1791049005736749600,10.40874951171875,0.025690613834559915,0.026223405537009237,0.22837262923531232
1791049005746707700,10.418707763671875,-0.1744981965109706,-0.31688451396822925,0.22955663312179966
1791049005756666600,10.42866650390625,-0.23536446088403462,-0.016853519645333288,0.19104113410348073
1791049005766624800,10.438624755859376,-0.40446401322185993,0.2497679570287466,0.05639303708230145
1791049005776582700,10.448582763671874,-0.4536585445016622,0.2692652691811323,0.21778266349676995
1791049005786541800,10.458541748046875,-0.31283436179459095,-0.0765139153599739,0.4045725881628692
1791049005796499700,10.468499755859375,-0.13906009564399718,-0.008386135551333426,0.44089097899571056
1791049005806458600,10.478458740234375,-0.20633914966881273,-0.032677111721038814,-0.09903526977496221
1791049005816416800,10.488416748046875,-0.5010416424453258,-0.11056114639043807,0.2047014837306924
1791049005826374700,10.498374755859375,-0.4513730639129877,0.13036065635979174,0.24878736675987018
1791049005836333800,10.508333740234375,-0.23586568840444086,-0.07924246354103089,-0.007631102233217097
1791049005846291700,10.518291748046876,-0.3318044352024793,0.0007288987964391708,-0.2177572733271867
1791049005856249600,10.52824951171875,-0.6414306486055255,-0.0008498948276042938,-0.10866018987363203
1791049005866208800,10.538208740234374,-0.7478285378366708,-0.03960720324516296,0.20636355345770716
1791049005876166700,10.548166748046874,-0.5566723442524671,-0.23561025233864782,-0.01660736743111629
1791049005886124500,10.55812451171875,-0.44765170530229803,-0.09707447282969951,-0.18618611355405298
1791049005896083700,10.568083740234375,-0.6637775049701332,-0.11755787340998648,-0.0807517903917469
1791049005906041600,10.57804150390625,-0.8341960309520363,-0.07442074247300624,0.03180542518673465
1791049005916000500,10.58800048828125,-0.6982046752288937,-0.15536942541003226,-0.16586236051488668
1791049005925958700,10.597958740234375,-0.4787140753030777,-0.13486556656360627,-0.2140231100338511
1791049005935916500,10.60791650390625,-0.6077262396633625,-0.14404314475357533,-0.15127828363887966
1791049005945875700,10.617875732421876,-0.7739002599433064,-0.1100105267703533,0.0007657465083757414
1791049005955833600,10.62783349609375,-0.7369324652910232,-0.032660745108127595,-0.12861425108388067
1791049005965791700,10.637791748046874,-0.718131903231144,-0.0030289924323558806,-0.24703308870475738
1791049005975750700,10.647750732421875,-0.8551561091333627,0.023873627540469167,-0.02361918242194224
1791049005985708800,10.657708740234375,-0.993130747628212,-0.0050648821741342545,0.08290411872058175
1791049005995667700,10.667667724609375,-0.9337380629390477,0.10152151536643504,-0.086400938727241
1791049006005625600,10.67762548828125,-0.9379495431542396,0.21429040093421936,-0.18403313677124677
1791049006015583700,10.687583740234375,-0.9343690543189644,0.17099018839001653,0.10259182974537834
1791049006025542700,10.697542724609375,-0.905449249304831,-0.03337444633543491,-0.1385137686065398
1791049006035500800,10.707500732421876,-0.6589914397373795,0.03990004871189594,-0.17265972903743385
1791049006045458700,10.717458740234376,-0.5818742977872491,0.19405659120082855,-0.07701676858188584
1791049006055417900,10.72741796875,-0.7086150100842118,0.3777501938194036,0.21583152942899614
1791049006065375700,10.737375732421874,-0.7477583952099084,0.3191284935027361,0.045929346338240425
1791049006075333600,10.747333740234374,-0.6609001959681511,0.5595832632631064,0.1111415583605878
1791049006085292500,10.75729248046875,-0.6140992818266153,0.7565636329561471,0.2279657837337814
1791049006095250700,10.767250732421875,-0.6603419775635003,0.5420856004953384,0.3241788722274825
1791049006105209600,10.777209716796875,-0.6629553749322891,0.2968237227141857,0.14891040373006834
1791049006115167700,10.787167724609375,-0.49352352190017695,0.17560849584043026,-0.06836842473067808
1791049006125125600,10.797125732421875,-0.6199249192401767,0.3679647128641605,0.05813338707676157
1791049006135084500,10.80708447265625,-0.9133511084705591,0.21841887904107568,0.03889752973900176
1791049006145042700,10.817042724609376,-0.9368319373011589,0.17768121046125887,0.06340624944576993
1791049006155000600,10.82700048828125,-0.6506365761071443,0.12624211512506006,0.1413565542844124
1791049006164959700,10.836959716796875,-0.6167053726717829,0.34646541323959823,0.09309559579398483
1791049006174917600,10.846917724609375,-0.9854562674775719,0.33260581471323963,0.07914146911827846
1791049006184875800,10.856875732421875,-0.9857730783417821,0.41767186984121796,0.1539883828477934
1791049006194834700,10.866834716796875,-0.8937032819315791,0.37951837253570553,0.02000590327862883
1791049006204792800,10.876792724609375,-0.8391530688375234,0.21883856575787067,0.10033543825387023
1791049006214751700,10.886751708984375,-0.8628139304101466,0.21017244422137735,0.41355701840091497
1791049006224709600,10.896709716796876,-0.9833347452789545,0.06575345189273357,-0.02730160867817467
1791049006234667800,10.906667724609376,-0.8304942538246511,0.2995277209758758,0.077921544535039
1791049006244626700,10.916626708984374,-0.8278171435698867,0.35575288154482837,0.23534047722024842
1791049006254584800,10.926584716796874,-0.8779603538766503,0.0815811356216669,0.38257984246555715
1791049006264542500,10.93654248046875,-0.7844730918839573,0.2629126852840185,0.17349846315020695
1791049006274501600,10.946501708984375,-0.927376126691699,0.38396307698488236,0.10149633525940589
1791049006284459500,10.95645947265625,-0.9789844411149621,0.5580857181817293,0.5498598512260243
1791049006294417700,10.966417724609375,-1.2188628722921013,0.20540333012342452,0.30992285826206206
1791049006304376600,10.97637646484375,-0.817196965356171,0.2492015553176403,0.2798451336507685
1791049006314334700,10.986334716796875,-0.7504238150268793,0.2892944962531328,0.23903016205104066
1791049006324293600,10.996293701171876,-0.8389873568817973,0.424100441583991,0.35022768838256596
1791049006334251500,11.00625146484375,-0.9034826254069804,0.3570212940454483,0.21738445795942096
1791049006344209700,11.016209716796874,-0.8357827156215906,0.5038485165596008,0.2098804390048608
1791049006354168600,11.02616845703125,-0.6935293768942355,0.6683645404994487,0.08405859511848539
1791049006364126700,11.036126708984375,-0.9320116775378584,0.4200461977571249,0.5004579242732375
1791049006374084600,11.046084716796875,-0.7845008566737175,0.27721067522764203,0.2520662423000671
1791049006384043800,11.056043701171875,-0.8060068783000112,0.22811142101585863,0.10579570382060483
1791049006394001700,11.066001708984375,-1.0323930829584598,0.48820028105080127,0.29232233790801837
1791049006403960800,11.0759609375,-1.2905737712845204,0.12469079402983188,0.5913824961710721
1791049006413918700,11.085918701171876,-1.184983691304922,0.14750877503752707,0.15726718532275408
1791049006423876900,11.095876953125,-1.0079656209275125,0.19418927766978739,0.2934571506242268
1791049006433835800,11.105835693359374,-1.2351742478847503,0.23159224886894225,0.3054324149750173
1791049006443793400,11.11579345703125,-1.2823404882073401,-0.12408932100534438,0.19863047498762607
1791049006453751600,11.12575146484375,-1.0721925939053296,0.190185887247324,0.038147444307350085
1791049006463710500,11.13571044921875,-1.0184434680610894,0.06805354552865028,-0.1064945545386523
1791049006473668600,11.145668701171875,-1.0317246821776032,0.18464345068931579,0.4670980909850448
1791049006483626500,11.15562646484375,-1.1714175227671861,-0.12358663218021392,0.04230511882593855
1791049006493585700,11.165585693359375,-0.8549912739604711,0.21849954306185243,0.1401478543480858
1791049006503543600,11.17554345703125,-1.0103092614442108,0.5434323389291763,0.13537333342265337
1791049006513502700,11.185502685546876,-1.195681610929966,0.1802905161768198,-0.018919014507508835
1791049006523460600,11.195460693359376,-0.8905950867831707,0.29009821385145185,0.25814828389380123
1791049006533418800,11.205418701171874,-0.8257976204410195,0.11670856310427188,-0.05298569915711414
1791049006543377700,11.215377685546875,-0.7437877380132675,0.5416974779605865,-0.027250771256792358
1791049006553335600,11.22533544921875,-1.1152210037708281,0.34766368311345575,0.08048272765940055
1791049006563293700,11.235293701171875,-0.8300158226579427,0.19620412462353706,-0.009285838037147186
1791049006573252600,11.245252685546875,-0.393613241122663,0.006002455285191536,0.06972837427253835
1791049006583210800,11.255210693359375,-0.4096151123747229,0.07465747383832931,-0.061949995356006544
1791049006593168600,11.265168701171875,-0.7955915750086308,0.6101490828961134,0.312139511398226
1791049006603127800,11.2751279296875,-1.0100620086848735,0.27727614167928694,-0.04628608735403977
1791049006613085700,11.285085693359376,-0.358950216281414,0.14520108261704445,0.1262030343568418
1791049006623044600,11.295044677734374,-0.02909077766686678,-0.2102624605923891,-0.04061392346913926
1791049006633002800,11.305002685546874,-0.13422142344117163,-0.02076514013111591,0.23521590099250897
1791049006642960600,11.314960693359374,-0.5530608757570386,0.13928279848396777,-0.06524829254930373
1791049006652919600,11.32491943359375,-0.5894368419960141,-0.15006430473923682,-0.2475321242680773
1791049006662877400,11.33487744140625,-0.1618073495030403,0.018481997630000115,-0.035571189194731415
1791049006672835600,11.344835693359375,-0.08881517852842807,-0.26543431271612644,-0.13084917966225185
1791049006682794500,11.35479443359375,-0.24346096583902835,-0.058576107609272,-0.07025204195361584
1791049006692752600,11.364752685546875,-0.5218842317268252,-0.0995060838907957,-0.3649638140151277
1791049006702711600,11.374711669921876,-0.20960253537893295,0.10823241118192672,-0.10683519380302167
1791049006712669700,11.384669677734376,-0.08552724289894104,-0.2611953599721193,-0.14617079529887997
1791049006722627600,11.394627685546874,0.1082160445690155,-0.16123568709492683,-0.27580137468529864
1791049006732586500,11.40458642578125,-0.031652737109363074,-0.09188274940550327,-0.24196002322416751
1791049006742544600,11.414544677734375,-0.09837883342653513,0.006616787791252136,-0.24937756947167217
1791049006752502800,11.424502685546875,-0.08126490927934646,-0.14564473473131656,-0.10982249338496476
1791049006762461700,11.434461669921875,0.03818535374850034,-0.1152437512487173,-0.2959661925693974
1791049006772419600,11.444419677734375,-0.09140607180446386,0.02731295433938503,-0.34778062402401116
1791049006782377700,11.454377685546875,-0.22875293378978967,0.2141571299433708,-0.09701441320553421
1791049006792336600,11.464336669921876,-0.2534606740668416,-0.09155074097216129,-0.2516691875401884
1791049006802294800,11.474294677734376,0.16204261956363916,-0.23793664945960044,-0.2616842942665331
1791049006812253700,11.484253662109374,0.2813601961225271,-0.009945639953017234,-0.21283441170593723
1791049006822211800,11.4942119140625,0.03611877660751343,-0.1446025322020054,-0.17438026921972632
1791049006832169500,11.50416943359375,-0.0697758392766118,-0.05177694898843765,-0.07972823776397854
1791049006842128600,11.514128662109375,-0.1468716461777687,-0.04132043690383434,-0.2402930763926357
1791049006852086500,11.52408642578125,-0.09163257403671742,0.1943289784014225,-0.3106327600970864
1791049006862044700,11.534044677734375,-0.25943916395455596,0.12759002260267735,0.07543533547618426
1791049006872003600,11.544003662109375,-0.21565496728569267,-0.03606675415933132,-0.05749658244398888
1791049006881961500,11.55396142578125,0.09017039252966642,-0.06076864921748638,-0.14936828529909252
1791049006891919600,11.563919677734376,0.21017916622310875,-0.08657470612525939,-0.11869500594744459
1791049006901878500,11.57387841796875,0.08602554780989885,-0.204723531165719,0.007846804510243237
1791049006911836700,11.583836669921874,0.05752689081728458,-0.32114217141270635,-0.020062869046698323
1791049006921795600,11.593795654296875,0.18305413567125797,0.21623861239254474,-0.06827448110322001
1791049006931753700,11.603753662109375,-0.15334054993093013,0.1998532947808504,0.13170606135306878
1791049006941711600,11.613711669921875,-0.16233955668359995,0.2692605930060148,0.3254311007782817
1791049006951670500,11.62367041015625,-0.08240180435478686,0.0970358943849802,0.20308349060742184
1791049006961628700,11.633628662109375,0.19796528907716274,0.19003975677490234,0.2895964931407012
1791049006971586800,11.6435869140625,-0.008123685222864151,0.10162672930657864,0.1183407491496764
1791049006981545700,11.653545654296876,-0.14652034852206705,0.29984862349331376,0.5823535326715559
1791049006991503600,11.663503662109376,0.016703882041573522,0.24215865106880663,0.08482837391458452
1791049007001462800,11.673462890625,0.09272387640476226,-0.060256023520231246,0.16088115630252287
1791049007011420700,11.683420654296874,0.007516366979479789,0.3945160351812839,0.26060612537469713
1791049007021378800,11.69337890625,-0.4480450885340571,0.12474281647801398,0.39404439908154304
1791049007031337700,11.703337646484375,-0.14621698166131972,0.2592728674769401,0.2743877998266369
1791049007041295600,11.713295654296875,-0.10330664521753788,-0.40515082644224165,0.4029400185249746
1791049007051253500,11.72325341796875,-0.09313771790266036,-0.5465583619952201,0.36888442152496426
1791049007061212400,11.73321240234375,-0.7100844981148838,-0.46521980295777315,0.6189961870227009
1791049007071170600,11.743170654296875,-1.1956658288389443,-0.15523147824406622,0.21549124635765327
1791049007081128700,11.753128662109376,-1.413915196532011,-0.6241758546829224,0.45912481055092064
1791049007091087600,11.763087646484376,-1.31678753221035,-0.8516863871961832,0.6073430490320548
1791049007101045500,11.77304541015625,-1.4586556710124015,-0.9770026196479796,0.962620385487005
1791049007111004700,11.783004638671875,-1.837726592041552,-1.3286726157933473,0.8338928832869976
1791049007120962600,11.792962646484375,-1.9089777645677326,-1.0253829119354485,0.7974562729019671
1791049007130920700,11.802920654296875,-1.861162120425701,-1.2957938440203667,0.8193065779212861
1791049007140879600,11.812879638671875,-1.6424202930405736,-1.6171020196497439,0.09182637044261209
1791049007150837800,11.822837646484375,-1.5042384415358303,-1.5627151804238557,0.07273531013671308
1791049007160795600,11.832795654296875,-1.583089567671716,-1.3693985939353703,0.022406915988773105
1791049007170754600,11.842754638671876,-1.6940440972939133,-1.4113351169109343,-0.04079918950870633
1791049007180712700,11.852712646484376,-1.757857521034777,-1.5698065999895334,0.2136767808142118
1791049007190670800,11.8626708984375,-1.4598676771506667,-1.3858178138166666,0.10948960816878825
1791049007200629800,11.872629638671874,-1.5563117431223392,-1.2377835536003112,0.3917210707005113
1791049007210587600,11.882587646484374,-1.5387930375665426,-1.1934019755601881,0.2632274503216147
1791049007220546800,11.892546875,-1.2660513244464993,-0.9221464093446731,-0.03843052414860576
1791049007230504700,11.902504638671875,-0.9012336774364114,-0.4650058679461479,-0.3306032427191734
1791049007240462600,11.912462646484375,-0.7535442851349711,-0.35463995186686514,-0.09200143474857322
1791049007250421800,11.922421875,-0.6458510953962803,-0.42234278426170346,-0.35433837510440497
1791049007260379600,11.932379638671875,-0.2126362039864063,-0.16974398772120475,-0.21288148398436604
1791049007270336800,11.942336669921875,-0.11113894627839326,0.25607728630602355,-0.41028632616717364
1791049007280296000,11.9522958984375,-0.21260727015286682,0.3960778776705265,-0.10179658771445974
1791049007290253800,11.96225390625,-0.02775134575664997,0.43022915359735486,-0.22960350447082892
1791049007300212700,11.972212646484374,0.3929962782680988,0.775495712441206,-0.1020669656210579
1791049007310171000,11.9821708984375,0.5521864310100675,1.0506997240215539,-0.2707304463628679
1791049007320129000,11.99212890625,0.4304746527910232,0.9826438404053449,-0.2649554796906188
1791049007330088000,12.002087890625,0.5862538280457258,1.1634773774176834,-0.3001510770386085
1791049007340045800,12.0120458984375,0.8091808321610092,1.3361059806644915,-0.3909356559438631
1791049007350004000,12.02200390625,0.8645484991177916,1.3954174168109894,-0.5170813249571249
1791049007359963000,12.031962890625,0.8552028708845376,1.2658330055207014,-0.37992600348852573
1791049007369921000,12.041921142578126,0.9923331675097345,1.3703823442757128,-0.433410377449356
1791049007379879000,12.05187890625,0.984519863410294,1.585132179415226,-0.42236236574500796
1791049007389838000,12.061838134765624,1.0190022709876299,1.6667366959124803,-0.25445426994776355
1791049007399796000,12.0717958984375,1.1789844508901237,1.5080021779835224,-0.03413639801810495
1791049007409755000,12.0817548828125,1.408565944458544,1.6165829642117022,-0.022014491738239304
1791049007419713000,12.091713134765625,1.475477041953802,1.789685614711046,0.11939776565562933
1791049007429671200,12.101671142578125,1.3696329872131348,2.022701174381375,0.3335818201385438
1791049007439630000,12.111630126953125,1.1888412435159086,1.6464707374751566,0.34332620189841834
1791049007449587700,12.121587646484375,1.3982438724085688,1.666302980670333,0.12963004966345615
1791049007459545900,12.1315458984375,1.1696817850157617,1.9071125552177428,-0.00104996571065858
1791049007469504800,12.1415048828125,0.9119763129860162,1.6734692190378904,-0.1679929245364852
1791049007479463000,12.151462890625,0.8213836033910512,1.256340954554081,-0.4913588912121951
1791049007489421800,12.161421875,1.2653218411281704,1.2837842572748661,-0.4835332390878349
1791049007499380000,12.1713798828125,1.2709832278907298,1.387500652337074,-0.5687427943397313
1791049007509337900,12.181337890625,1.032946625187993,1.5050842447102069,-0.2613422941621393
1791049007519296800,12.191296875,0.9424252272635698,1.1763760219573973,-0.6033358957499265
1791049007529255000,12.2012548828125,1.2107286656752227,1.2054910572826862,-0.46964751973953095
1791049007539213000,12.211213134765625,1.1729130220219492,1.3179893092155455,-0.5065187952147796
1791049007549172000,12.221171875,0.8676897197529673,1.1308978808522223,-0.3657657780477777
1791049007559129900,12.2311298828125,0.8682380012854933,0.9879846169114113,-0.5243716280957683
1791049007569088000,12.241087890625,1.2835074861600995,0.9816735340684651,-0.5215623428286984
1791049007579047000,12.251046875,1.362577223482728,1.1435615475922822,-0.3933504985332489
1791049007589005000,12.261005126953124,1.0403183229997754,0.8277613217294215,-0.4248241527486592
1791049007598964000,12.2709638671875,1.0989464530572295,0.7862129212886094,-0.32842582561485467
1791049007608922000,12.280922119140625,1.454497674550116,0.8179396004170179,-0.3221516772488132
1791049007618880000,12.2908798828125,1.3345213418215514,1.0227081397682427,-0.015251648823090363
1791049007628839000,12.3008388671875,0.9393629170835017,0.6883826616555452,-0.11394239545972086
1791049007638797000,12.310797119140625,0.9096852794393897,0.4906505968123674,0.01904245594079839
1791049007648755000,12.3207548828125,1.203708265519142,0.6074392394155264,0.08635019492069258
