time,seconds_elapsed,z,y,x
1791048995390029600,0.062029541015625,0.006195116322487593,-0.0012902803719043732,-0.015653833746910095
1791048995399987700,0.07198779296875,-0.0038615125231444836,0.004414476454257965,0.03023749217391014
1791048995409946600,0.081946533203125,-0.006208023522049189,-0.0012061246670782566,0.007735113613307476
1791048995419904800,0.09190478515625,-0.002675873227417469,-0.0025305142626166344,-0.024377815425395966
1791048995429862700,0.101862548828125,0.004517324734479189,-0.000281475018709898,-0.024436671286821365
1791048995439820800,0.11182080078125,0.005374596919864416,0.002231217222288251,0.036274876445531845
1791048995449779700,0.12177978515625,-0.001651887665502727,-0.0006609754636883736,0.024005163460969925
1791048995459737900,0.13173779296875,-0.0006239074282348156,-0.003841855563223362,-0.044041797518730164
1791048995469695500,0.141695556640625,0.000043480657041072845,-0.0034764697775244713,-0.024326149374246597
1791048995479655000,0.151655029296875,0.000811802688986063,0.003517790464684367,0.03617873787879944
1791048995489612500,0.161612548828125,0.008045215159654617,-0.0020599341951310635,0.023410212248563766
1791048995499570700,0.17157080078125,0.0035940068773925304,-0.0016133221797645092,-0.04554115980863571
1791048995509528600,0.181528564453125,0.002935407217592001,-0.0038636932149529457,-0.02481803670525551
1791048995519487700,0.19148779296875,-0.0007115255575627089,0.005463762208819389,0.04948442429304123
1791048995529445600,0.201445556640625,0.01263037882745266,-0.0022498173639178276,0.008103428408503532
1791048995539403800,0.21140380859375,0.008831113576889038,0.00028418004512786865,-0.05438658222556114
1791048995549362700,0.22136279296875,0.001885855570435524,-0.0004322100430727005,0.0021134468261152506
1791048995559320600,0.231320556640625,-0.006034385412931442,0.00391832971945405,0.032430339604616165
1791048995569278700,0.24127880859375,0.004048342350870371,-0.0012860195711255074,0.006426170002669096
1791048995579236900,0.25123681640625,0.006024407688528299,-0.0008636419661343098,-0.03114783763885498
1791048995589195800,0.26119580078125,0.004107464570552111,-0.0003882679156959057,0.036594457924366
1791048995599153700,0.271153564453125,-0.0075859432108700275,0.0015363986603915691,0.05521368235349655
1791048995609111800,0.28111181640625,-0.0005871558096259832,-0.003011215478181839,0.003262600861489773
1791048995619070700,0.29107080078125,0.0032675033435225487,-0.004502585157752037,-0.04974415898323059
1791048995629028900,0.30102880859375,-0.00406311359256506,0.0013204161077737808,0.035017333924770355
1791048995638986500,0.310986572265625,-0.011583881452679634,-0.0010716351680457592,0.04354450851678848
1791048995648944600,0.320944580078125,0.0022975802421569824,-0.0015395525842905045,-0.006838236004114151
1791048995658903600,0.330903564453125,0.0018016993999481201,-0.003744649700820446,-0.022430777549743652
1791048995668861700,0.34086181640625,0.006670224014669657,0.0014895270578563213,0.05453111231327057
1791048995678819600,0.350819580078125,-0.0018707994604483247,-0.001357924658805132,0.05526907742023468
1791048995688778800,0.36077880859375,-0.0029706850182265043,-0.003047434613108635,-0.0157928504049778
1791048995698736600,0.370736572265625,-0.0012327061267569661,-0.003685261122882366,-0.046701498329639435
1791048995708694800,0.38069482421875,0.00817650742828846,0.00443018926307559,0.06078155338764191
1791048995718652700,0.390652587890625,0.006432404275983572,0.003559069475159049,0.07913366705179214
1791048995728611600,0.400611572265625,0.00599671108648181,-0.0028591491281986237,-0.02134660631418228
1791048995738569700,0.41056982421875,0.001641643699258566,-0.005082888528704643,-0.04454433545470238
1791048995748527900,0.42052783203125,-0.011465370655059814,0.004654693882912397,0.054278381168842316
1791048995758486800,0.43048681640625,0.006372749339789152,0.0014730151742696762,0.06582211703062057
1791048995768444700,0.440444580078125,0.0017340551130473614,0.0005651437677443027,-0.017926041036844254
1791048995778402600,0.450402587890625,-0.0019296553218737245,-0.003852774389088154,-0.02266193926334381
1791048995788360700,0.460360595703125,-0.004336620215326548,0.0031675847712904215,0.04315169155597687
1791048995798319600,0.470319580078125,0.005589247215539217,0.001005630474537611,0.03966774418950081
1791048995808277500,0.480277587890625,0.007647337857633829,-0.0018335655331611633,-0.015177925117313862
1791048995818235600,0.490235595703125,-0.0037323490250855684,-0.0019712508656084538,-0.0038837254978716373
1791048995828194600,0.500194580078125,-0.010152431204915047,-0.00024419091641902924,0.034663666039705276
1791048995838152700,0.510152587890625,-0.0008449498564004898,-0.0030857836827635765,0.00482614291831851
1791048995848110600,0.520110595703125,-0.0013863705098628998,-0.00045404816046357155,-0.038332778960466385
1791048995858069800,0.53006982421875,0.0025391289964318275,-0.00031742779538035393,0.02885185182094574
1791048995868027600,0.540027587890625,-0.006439718417823315,-0.0021355682983994484,0.029238007962703705
1791048995877985800,0.54998583984375,-0.0060058897361159325,-0.0012079887092113495,-0.02007840946316719
1791048995887943700,0.559943603515625,-0.010328732430934906,-0.007436590269207954,-0.0444287545979023
1791048995897902800,0.56990283203125,-0.009202215820550919,0.004273595288395882,0.03756384924054146
1791048995907860700,0.57986083984375,-0.0030484492890536785,-0.0030900444835424423,0.032979484647512436
1791048995917819000,0.58981884765625,-0.003374153980985284,-0.002462870441377163,-0.049412596970796585
1791048995927777800,0.59977783203125,-0.006327067036181688,-0.005590486340224743,-0.036347661167383194
1791048995937735700,0.609735595703125,-0.011040596291422844,0.0037992866709828377,0.03746957331895828
1791048995947693600,0.619693603515625,-0.003346989629790187,-0.00214515533298254,0.027218002825975418
1791048995957652500,0.629652587890625,0.005962622817605734,-0.0013203741982579231,-0.04943869262933731
1791048995967610600,0.639610595703125,-0.004151796922087669,-0.0035731419920921326,-0.031234122812747955
1791048995977568500,0.649568603515625,-0.01191624253988266,0.005300244316458702,0.03747063875198364
1791048995987526700,0.659526611328125,-0.0014122031861916184,-0.0014141174033284187,0.028620153665542603
1791048995997485600,0.669485595703125,0.00023702485486865044,0.0021182477939873934,-0.05457596480846405
1791048996007443700,0.679443603515625,0.00556201534345746,-0.000028792768716812134,-0.018134601414203644
1791048996017401600,0.689401611328125,-0.006467216648161411,0.005530289839953184,0.04356338083744049
1791048996027360800,0.69936083984375,-0.0005880224052816629,0.005525229498744011,0.01847587525844574
1791048996037318700,0.709318603515625,0.0020405175164341927,-0.003217927645891905,-0.06027193367481232
1791048996047276800,0.71927685546875,-0.0021811253391206264,0.007856560871005058,0.005060466472059488
1791048996057234700,0.729234619140625,-0.003509776433929801,0.002352339681237936,0.051842354238033295
1791048996067193900,0.73919384765625,-0.0048986151814460754,0.004488727543503046,0.004827972501516342
1791048996077151700,0.74915185546875,-0.0013488876866176724,-0.004935667384415865,-0.06657882779836655
1791048996087110000,0.75910986328125,-0.00417290348559618,0.004235460888594389,0.023490073159337044
1791048996097068800,0.76906884765625,-0.002069805283099413,0.0041065639816224575,0.05188895761966705
1791048996107026700,0.779026611328125,0.0015813885256648064,-3.073364496231079e-8,-0.026212234050035477
1791048996116984600,0.788984619140625,-0.005518332589417696,0.0001395191065967083,-0.03129807114601135
1791048996126943500,0.798943603515625,-0.007465635892003775,0.004699649754911661,0.02846539206802845
1791048996136901600,0.808901611328125,-0.0021036274265497923,0.0008351369760930538,0.03304682672023773
1791048996146859500,0.818859619140625,-0.00491219712421298,0.0008758832700550556,-0.03021177090704441
1791048996156817700,0.828817626953125,-0.007329548243433237,-0.0009590350091457367,-0.01528981328010559
1791048996166776600,0.838776611328125,-0.013415403664112091,0.0027845706790685654,0.03605806082487106
1791048996176734700,0.848734619140625,-0.00508903106674552,-0.00025382963940501213,0.007282075472176075
1791048996186692600,0.858692626953125,-0.0025805996265262365,-0.003218460362404585,-0.040520332753658295
1791048996196651800,0.86865185546875,-0.006154561880975962,0.0016782935708761215,0.010194242000579834
1791048996206609700,0.878609619140625,-0.00871811993420124,-0.001164897345006466,0.02881533093750477
1791048996216567800,0.88856787109375,-0.0048472159542143345,0.0006609661504626274,-0.011348067782819271
1791048996226526700,0.898526611328125,-0.003942007664591074,-0.0038379118777811527,-0.024295024573802948
1791048996236484900,0.90848486328125,-0.006001962348818779,0.002707072766497731,0.0226232148706913
1791048996246442800,0.91844287109375,-0.002600573468953371,-0.001096453983336687,0.016336822882294655
1791048996256401700,0.928401611328125,-0.006275203078985214,-0.003226450178772211,-0.025557097047567368
1791048996266360300,0.9383603515625,-0.004102862440049648,-0.0028597326017916203,-0.013756364583969116
1791048996276318200,0.948318115234375,-0.005673861131072044,0.002477508271113038,0.03623969107866287
1791048996286276400,0.9582763671875,0.004540426656603813,0.002396548166871071,0.017851896584033966
1791048996296235300,0.9682353515625,0.0016136127524077892,-0.0002961740829050541,-0.03714264929294586
1791048996306193400,0.978193359375,-0.006016610190272331,0.0016625807620584965,-0.0032027894631028175
1791048996316151300,0.9881513671875,-0.0040261633694171906,0.00003139488399028778,0.04056759178638458
1791048996326110500,0.9981103515625,-0.003070354927331209,0.005329221021384001,0.013104544952511787
1791048996336068000,1.008068115234375,0.004554807674139738,-0.003985184710472822,-0.02887619473040104
1791048996346026200,1.018026123046875,-0.0003866874612867832,0.0010652337223291397,-0.016820596531033516
1791048996355985200,1.027985107421875,0.0001805657520890236,0.0019161137752234936,0.04664013534784317
1791048996365943300,1.037943359375,-0.0025153520982712507,0.002735834801569581,0.016151733696460724
1791048996375901200,1.047901123046875,-0.004216313362121582,-0.002358791884034872,-0.03281128406524658
1791048996385859300,1.057859375,0.0012458302080631256,-0.0023555965162813663,-0.003674169071018696
1791048996395818200,1.067818359375,-0.013101151213049889,0.0043150894343853,0.03574115037918091
1791048996405776400,1.0777763671875,-0.00443043140694499,-0.0022719730623066425,0.004389616195112467
1791048996415734300,1.087734375,-0.0010399608872830868,-0.0015470609068870544,-0.01992371305823326
1791048996425693200,1.097693115234375,-0.006090379320085049,0.003041832009330392,0.0063654156401753426
1791048996435651300,1.1076513671875,-0.000877241836860776,-0.002395543735474348,0.018265750259160995
1791048996445609200,1.117609130859375,-0.009225452318787575,0.00016348762437701225,-0.0058254702016711235
1791048996455568400,1.127568359375,-0.004817654844373465,-0.00046182284131646156,0.007270091213285923
1791048996465526300,1.1375263671875,0.001417071558535099,-0.0038797236047685146,-0.012282038107514381
1791048996475484400,1.147484375,-0.003752124262973666,0.0029720570892095566,0.009723395109176636
1791048996485443300,1.157443359375,-0.001147552626207471,-0.0010671592317521572,0.024227237328886986
1791048996495401500,1.1674013671875,-0.0034402681048959494,-0.0004165489226579666,-0.021395908668637276
1791048996505359000,1.177359130859375,0.0025579696521162987,-0.004129794891923666,-0.006334933452308178
1791048996515318300,1.187318359375,-0.0025361247826367617,0.0035936390049755573,0.03799418359994888
1791048996525276200,1.197276123046875,-0.005275718867778778,-0.0007044365629553795,-0.014280740171670914
1791048996535234300,1.207234375,0.00003648875281214714,-0.001964111812412739,-0.0032547214068472385
1791048996545192200,1.217192138671875,-0.006994789000600576,0.0006915922276675701,0.013494963757693768
1791048996555151000,1.227151123046875,-0.007689075078815222,0.00034245196729898453,0.000026825815439224243
1791048996565109200,1.237109130859375,-0.0003925464116036892,0.0018612528219819069,0.00818621926009655
1791048996575067400,1.2470673828125,-0.0021140137687325478,-0.00309941777959466,-0.0080289700999856
1791048996585026300,1.2570263671875,-0.0019694040529429913,0.0006750808097422123,0.016949616372585297
1791048996594984200,1.266984130859375,-0.005973466672003269,0.0011192960664629936,0.004552868194878101
1791048996604942300,1.2769423828125,-0.00781850516796112,0.0002487087622284889,-0.01630128175020218
1791048996614901200,1.2869013671875,-0.0021318569779396057,0.00457022013142705,0.0348266176879406
1791048996624859400,1.296859375,0.003745739348232746,0.0001243390142917633,0.00023375335149466991
1791048996634817300,1.3068173828125,-0.0021427758038043976,-0.0005947146564722061,-0.014877289533615112
1791048996644776400,1.3167763671875,-0.009601756930351257,0.0035904431715607643,0.02094968408346176
1791048996654734300,1.326734375,-0.0046006073243916035,-0.0020495993085205555,-0.01300082542002201
1791048996664692200,1.336692138671875,-0.0003102547489106655,0.002381634432822466,0.012926645576953888
1791048996674651400,1.3466513671875,-0.0006258394569158554,-0.002522843424230814,-0.0007292455993592739
1791048996684609300,1.356609375,-0.008615855127573013,0.0014039878733456135,0.008699143305420876
1791048996694567200,1.366567138671875,-0.005110869184136391,0.0016431398689746857,0.016050532460212708
1791048996704526000,1.376526123046875,0.004321781452745199,-0.0015449305064976215,-0.028681518509984016
1791048996714484200,1.386484130859375,-0.003469296498224139,0.0023858954664319754,0.008627770468592644
1791048996724442400,1.3964423828125,-0.009064864367246628,0.0030373046174645424,0.02912585437297821
1791048996734400300,1.406400146484375,-0.011862248182296753,0.0012798844836652279,-0.018369758501648903
1791048996744359200,1.416359130859375,0.0007928265258669853,0.0016255630180239677,0.014377268962562084
1791048996754317300,1.4263173828125,0.0026461202651262283,-0.003276518080383539,-0.01209028996527195
1791048996764275200,1.436275146484375,-0.007074417546391487,0.004727080464363098,0.019831422716379166
1791048996774234400,1.446234375,-0.010722948238253593,-0.00006927270442247391,0.007511107251048088
1791048996784192300,1.456192138671875,-0.014887599274516106,0.0028138654306530952,-0.01847841590642929
1791048996794150400,1.466150390625,-0.000311586307361722,0.002506803022697568,0.038001902401447296
1791048996804109300,1.476109375,0.0050277854315936565,0.00003752019256353378,-0.010975757613778114
1791048996814067500,1.4860673828125,-0.00454681133851409,0.00043939100578427315,0.0063470397144556046
1791048996824025000,1.496025146484375,-0.010356230661273003,0.00479605607688427,0.02107352204620838
1791048996833984300,1.505984375,-0.013956557959318161,0.0022998752538114786,-0.01852981373667717
1791048996843942100,1.515942138671875,-0.0003752359189093113,0.002759004244580865,0.03184281289577484
1791048996853900300,1.525900390625,0.003506055101752281,-0.003364668693393469,-0.032511673867702484
1791048996863859200,1.535859130859375,-0.004131890833377838,0.0038410467095673084,0.03602930158376694
1791048996873817000,1.545817138671875,-0.005844836123287678,0.003188039641827345,0.01949320174753666
1791048996883775200,1.555775146484375,-0.01713717170059681,-0.0016024545766413212,-0.023984767496585846
1791048996893734100,1.565734130859375,-0.008450472727417946,0.002697751624509692,0.03834012895822525
1791048996903692300,1.5756923828125,-0.0018298545619472861,-0.003486374858766794,-0.03145226836204529
1791048996913650200,1.585650146484375,0.0016149445436894894,0.0020013349130749702,0.05132090300321579
1791048996923608300,1.5956083984375,-0.0062405820935964584,-0.0025774375535547733,-0.00842125341296196
1791048996933567200,1.605567138671875,-0.006660296116024256,-0.005767371971160173,-0.008808477781713009
1791048996943525400,1.615525390625,-0.006194775458425283,-0.0004439796321094036,0.02803422510623932
1791048996953483300,1.625483154296875,-0.00614257762208581,-0.004559096414595842,-0.029347842559218407
1791048996963442400,1.6354423828125,0.001444235909730196,-0.0012924624606966972,0.04296044260263443
1791048996973400300,1.645400390625,0.0007057411130517721,-0.0020176414400339127,-0.015511387959122658
1791048996983358500,1.6553583984375,-0.00033555482514202595,-0.001905522309243679,0.02545362338423729
1791048996993317400,1.6653173828125,-0.006388653535395861,-0.004027262795716524,-0.00043123774230480194
1791048997003275300,1.675275146484375,-0.00995329488068819,-0.004082922358065844,-0.020563935860991478
1791048997013233200,1.685233154296875,-0.010769820772111416,-0.0014512981288135052,0.04518446326255798
1791048997023192000,1.695192138671875,-0.007038732059299946,-0.0016949772834777832,-0.029188303276896477
1791048997033150200,1.705150146484375,0.003412044607102871,-0.0018981765024363995,0.0345294214785099
1791048997043108400,1.7151083984375,0.0018469044007360935,-0.003750937059521675,-0.032014720141887665
1791048997053067300,1.7250673828125,-0.002637059660628438,0.000004386063665151596,0.03937291353940964
1791048997063025200,1.735025146484375,-0.009460611268877983,-0.0023040417581796646,-0.005044353194534779
1791048997072983300,1.7449833984375,-0.007007040549069643,-0.002259034663438797,-0.003080271650105715
1791048997082942200,1.754942138671875,-0.0015888394555076957,-0.002266491763293743,0.014239862561225891
1791048997092900400,1.764900390625,-0.0010562073439359665,-0.0032049892470240593,-0.029888981953263283
1791048997102858200,1.774858154296875,0.002069544978439808,0.0011303704231977463,0.04709341377019882
1791048997112817400,1.7848173828125,-0.0013805802445858717,-0.0011405069380998611,-0.0272937323898077
1791048997122775300,1.794775390625,0.005216602236032486,-0.00007151393219828606,0.03416962921619415
1791048997132733400,1.8047333984375,0.002281798981130123,-0.0036569274961948395,-0.019656052812933922
1791048997142692400,1.8146923828125,0.0016085519455373287,0.0003687064163386822,0.0017368539702147245
1791048997152650200,1.824650146484375,0.0026474506594240665,-0.0017722086049616337,0.009378528222441673
1791048997162608400,1.8346083984375,-0.0037747621536254883,-0.0012547564692795277,-0.014899114146828651
1791048997172567300,1.8445673828125,0.00735032744705677,-0.001488582231104374,0.022425886243581772
1791048997182525200,1.854525146484375,0.0024495781399309635,-0.0034779636189341545,-0.034425146877765656
1791048997192483000,1.864483154296875,0.012114988639950752,-0.0029218951240181923,0.027064314112067223
1791048997202441200,1.874441162109375,0.00503204483538866,-0.0004446231760084629,-0.02103210799396038
1791048997212400000,1.884400146484375,0.006018213927745819,-0.0006683287210762501,0.027213452383875847
1791048997222358300,1.894358154296875,0.005195030942559242,-0.0037464099004864693,-0.023519767448306084
1791048997232316200,1.904316162109375,0.0019108206033706665,-0.0007615392096340656,-0.0072164274752140045
1791048997242275300,1.914275390625,0.0027004475705325603,-0.003854001872241497,0.0017222065944224596
1791048997252233200,1.924233154296875,-0.004024566616863012,-0.0012883124873042107,-0.018407030031085014
1791048997262191000,1.934191162109375,0.0019049616530537605,0.0015370352193713188,0.02597881108522415
1791048997272150000,1.94414990234375,-0.0032985887955874205,-0.004058266058564186,-0.048987843096256256
1791048997282108200,1.954108154296875,0.006876284256577492,0.0027767366264015436,0.036296963691711426
1791048997292066000,1.964066162109375,-0.0008231806568801403,0.00016923574730753899,-0.04349427670240402
1791048997302025000,1.97402490234375,0.00015047099441289902,0.004877704195678234,0.033034853637218475
1791048997311983000,1.983983154296875,-0.002643451327458024,-0.0018957792781293392,-0.04534783214330673
1791048997321941200,1.993941162109375,-0.0027284061070531607,0.0030771412421017885,0.01827428489923477
1791048997331900200,2.003900146484375,-0.006578538101166487,0.0017887037247419357,0.0005743841174989939
1791048997341858000,2.013858154296875,-0.008194544352591038,0.0026483722031116486,-0.036117054522037506
1791048997351816200,2.023816162109375,-0.0071729556657373905,0.00391816720366478,0.021784598007798195
1791048997361775000,2.033775146484375,-0.01406974345445633,0.001483771950006485,-0.029962485656142235
1791048997371733200,2.043733154296875,-0.008941028267145157,0.005492362193763256,0.027380963787436485
1791048997381691100,2.053691162109375,-0.014068412594497204,0.001679514069110155,-0.0428849458694458
1791048997391650300,2.063650390625,-0.009277917444705963,0.007205307018011808,0.04131968319416046
1791048997401608200,2.073608154296875,-0.007789477240294218,0.0032883298117667437,-0.03321181237697601
1791048997411566300,2.08356640625,-0.014687064103782177,0.004484621807932854,-0.002588386181741953
1791048997421525200,2.093525146484375,-0.012022571638226509,0.006014607846736908,0.008748157881200314
1791048997431483100,2.103483154296875,-0.01606791466474533,0.0027801988180726767,0.004385900218039751
1791048997441441000,2.11344091796875,-0.020261861383914948,0.0013729846104979515,-0.015347857028245926
1791048997451400000,2.12339990234375,-0.02015799656510353,-0.00042571453377604485,-0.03449385613203049
1791048997461358000,2.133358154296875,-0.017584051936864853,0.005965872202068567,0.03845891356468201
1791048997471316200,2.143316162109375,-0.01798352599143982,0.0018393038772046566,-0.022561028599739075
1791048997481275100,2.153275146484375,-0.007735149003565311,0.0040289550088346004,0.006896195933222771
1791048997491233000,2.16323291015625,-0.014413291588425636,0.0021338495425879955,-0.037378594279289246
1791048997501191200,2.173191162109375,-0.011724564246833324,0.006869748700410128,0.04955444484949112
1791048997511150000,2.183150146484375,-0.019209377467632294,0.0016270498745143414,-0.024808736518025398
1791048997521108200,2.193108154296875,-0.017523862421512604,0.005555212497711182,0.02469969354569912
1791048997531066000,2.203066162109375,-0.017517471686005592,0.0022611485328525305,-0.030505238100886345
1791048997541025300,2.213025390625,-0.021146826446056366,0.0025924458168447018,-0.011450853198766708
1791048997550983200,2.222983154296875,-0.025047827512025833,0.003813238814473152,0.019557129591703415
1791048997560941300,2.23294140625,-0.02690005674958229,0.003476615296676755,-0.011860181577503681
1791048997570900200,2.242900146484375,-0.021623533219099045,0.008093471638858318,0.037846654653549194
1791048997580858000,2.252858154296875,-0.02634718269109726,0.0019077472388744354,-0.05989775061607361
1791048997590816300,2.262816162109375,-0.025913618505001068,0.00966979656368494,0.042730629444122314
1791048997600775200,2.272775146484375,-0.03449326008558273,0.007210900075733662,-0.015233874320983887
1791048997610733000,2.282733154296875,-0.02592986449599266,0.011405112221837044,0.05252333730459213
1791048997620691000,2.29269091796875,-0.026509635150432587,0.00818881206214428,-0.03548428416252136
1791048997630650000,2.302650146484375,-0.02401105687022209,0.009307073429226875,0.012492296285927296
1791048997640608000,2.31260791015625,-0.029860157519578934,0.009542230516672134,0.017883867025375366
1791048997650566100,2.322566162109375,-0.035281289368867874,0.011309770867228508,0.02278541401028633
1791048997660525000,2.332525146484375,-0.031731829047203064,0.0071549732238054276,0.020057005807757378
1791048997670483200,2.342483154296875,-0.03196991607546806,0.009122783318161964,-0.030317751690745354
1791048997680441000,2.352441162109375,-0.027661718428134918,0.010003756731748581,0.04944312572479248
1791048997690399200,2.362399169921875,-0.03356807678937912,0.010984333232045174,-0.003861110657453537
1791048997700358100,2.372358154296875,-0.02062777802348137,0.009980054572224617,0.023757467046380043
1791048997710316300,2.38231640625,-0.026198845356702805,0.008091607131063938,-0.029651695862412453
1791048997720274200,2.392274169921875,-0.02359267696738243,0.012136416509747505,0.06359010189771652
1791048997730233000,2.402233154296875,-0.031491342931985855,0.010375001467764378,-0.00842150766402483
1791048997740191200,2.412191162109375,-0.029078252613544464,0.00648039486259222,0.022201647982001305
1791048997750149400,2.4221494140625,-0.025454755872488022,0.009054872207343578,-0.002782796509563923
1791048997760108300,2.4321083984375,-0.02653546631336212,0.007385336793959141,0.02085648663341999
1791048997770066200,2.442066162109375,-0.030603714287281036,0.00497464369982481,0.008596624247729778
1791048997780024000,2.452024169921875,-0.034919366240501404,0.009190427139401436,0.001335781766101718
1791048997789983000,2.46198291015625,-0.026734139770269394,0.005299815442413092,0.019993355497717857
1791048997799941000,2.471941162109375,-0.02623479813337326,0.004669445101171732,-0.02524522878229618
1791048997809899000,2.48189892578125,-0.02044641599059105,0.00961173977702856,0.03931325674057007
1791048997819858200,2.491858154296875,-0.02936454489827156,0.003946396987885237,-0.002459755167365074
1791048997829816000,2.501816162109375,-0.02340811863541603,0.008186415769159794,0.03269796818494797
1791048997839774200,2.511774169921875,-0.0186447873711586,0.003851055633276701,-0.03740815073251724
1791048997849733000,2.521733154296875,-0.013740576803684235,0.005616465117782354,0.049157366156578064
1791048997859691300,2.531691162109375,-0.022170547395944595,0.003096049651503563,0.01146138645708561
1791048997869649200,2.541649169921875,-0.025176722556352615,-0.002438531257212162,-0.0014645322225987911
1791048997879608000,2.551608154296875,-0.02081127092242241,-0.0029967306181788445,0.0012300543021410704
1791048997889566200,2.561566162109375,-0.01889512687921524,-0.0026065772399306297,0.009193705394864082
1791048997899524000,2.571524169921875,-0.01247983705252409,-0.0037775691598653793,0.018733680248260498
1791048997909483300,2.581483154296875,-0.012193013913929462,-0.00841546431183815,-0.014302033931016922
1791048997919441200,2.591441162109375,-0.020020578056573868,-0.004424450919032097,0.01905246078968048
1791048997929399300,2.6013994140625,-0.014933407306671143,-0.005933930166065693,-0.02813315950334072
1791048997939358200,2.611358154296875,-0.001577654154971242,-0.0041735814884305,0.018337136134505272
1791048997949316400,2.62131640625,-0.004907937254756689,-0.004513400606811047,-0.036058731377124786
1791048997959274000,2.63127392578125,-0.006677607540041208,-0.00033410172909498215,0.02982175163924694
1791048997969233200,2.641233154296875,-0.004938030615448952,-0.006965639069676399,-0.042320616543293
1791048997979191000,2.65119091796875,-0.0020218694116920233,-0.002501116134226322,0.006327610928565264
1791048997989149200,2.661149169921875,0.000706805381923914,-0.006486270576715469,-0.03493513911962509
1791048997999108000,2.671108154296875,-0.002250368706882,-0.0061677563935518265,-0.000671708956360817
1791048998009066000,2.68106591796875,-0.0027577008586376905,-0.00561674777418375,-0.007918702438473701
1791048998019024100,2.691024169921875,0.00833942461758852,-0.009199499152600765,-0.021282978355884552
1791048998028983000,2.700983154296875,0.014434726908802986,-0.009780807420611382,-0.05016208812594414
1791048998038941200,2.710941162109375,0.014850979670882225,-0.0067242966033518314,-0.040344879031181335
1791048998048899000,2.720899169921875,0.0162065289914608,-0.007883837446570396,0.02678781934082508
1791048998058858200,2.730858154296875,0.016661928966641426,-0.0062989904545247555,-0.033687774091959
1791048998068816100,2.740816162109375,0.030499715358018875,-0.012016797438263893,-0.021265193819999695
1791048998078774300,2.750774169921875,0.0255342498421669,-0.009720087051391602,-0.05091336742043495
1791048998088733200,2.760733154296875,0.026639461517333984,-0.007131494116038084,0.026886356994509697
1791048998098691300,2.77069140625,0.02590336464345455,-0.010544601827859879,-0.021249746903777122
1791048998108649200,2.780649169921875,0.0313149094581604,-0.006776760797947645,0.035234566777944565
1791048998118608100,2.790608154296875,0.023688146844506264,-0.015397148206830025,-0.07067669183015823
1791048998128566000,2.80056591796875,0.01903773471713066,-0.004867274779826403,0.026706060394644737
1791048998138524200,2.810524169921875,0.010101763531565666,-0.007476107683032751,-0.021500883623957634
1791048998148483000,2.820483154296875,0.014910101890563965,-0.005869422573596239,0.022822372615337372
1791048998158441000,2.83044091796875,0.00047124107368290424,-0.00340866157785058,-0.020080886781215668
1791048998168399000,2.840399169921875,-0.0008651332464069128,-0.0038022766821086407,0.007989097386598587
1791048998178358000,2.85035791015625,0.00511898985132575,-0.004855556879192591,-0.008501196280121803
1791048998188316200,2.860316162109375,-0.0001487429253757,-0.000530849676579237,0.01263817772269249
1791048998198274000,2.870274169921875,0.005997300613671541,-0.0019591026939451694,0.006135537289083004
1791048998208233200,2.880233154296875,0.0008973469957709312,-0.0031684446148574352,0.027768662199378014
1791048998218191000,2.890191162109375,-0.0035448058042675257,-0.00440068868920207,-0.01558041013777256
1791048998228149200,2.900149169921875,-0.005831129848957062,-0.0030488683842122555,0.004742704331874847
1791048998238108200,2.910108154296875,0.005922997836023569,-0.004435576032847166,-0.004414574708789587
1791048998248066300,2.92006640625,0.005403947550803423,0.0012510716915130615,0.026679428294301033
1791048998258024200,2.930024169921875,-0.00022171344608068466,-0.00042751897126436234,0.015152201056480408
1791048998267983000,2.939983154296875,0.000901341438293457,-0.0027468656189739704,-0.02580854669213295
1791048998277941200,2.949941162109375,0.0023338557220995426,0.00020231865346431732,0.00842505693435669
1791048998287899100,2.959899169921875,-0.009805098176002502,0.000570367556065321,0.02281438373029232
1791048998297858300,2.9698583984375,-0.006353641860187054,0.0000483877956867218,0.049737609922885895
1791048998307816200,2.979816162109375,-0.004204470664262772,-0.0065213642083108425,-0.04474761709570885
1791048998317774300,2.9897744140625,-0.008721191436052322,0.0018414943479001522,0.02533772774040699
1791048998327733200,2.999733154296875,-0.018728552386164665,-0.00006586173549294472,0.0195032749325037
1791048998337691100,3.009691162109375,-0.014369755983352661,0.0025213994085788727,0.019155731424689293
1791048998347649000,3.01964892578125,-0.01508801057934761,-0.00241343816742301,-0.03843379393219948
1791048998357608200,3.029608154296875,-0.01424858346581459,0.003215419128537178,0.02329375222325325
1791048998367566000,3.039566162109375,-0.026894602924585342,0.0033118254505097866,0.0152861587703228
1791048998377524200,3.049524169921875,-0.017721878364682198,0.0025211330503225327,-0.0027548931539058685
1791048998387483100,3.059483154296875,-0.019928839057683945,-0.002727158833295107,-0.07378645986318588
1791048998397441000,3.06944091796875,-0.016843033954501152,0.004000518936663866,0.0520084872841835
1791048998407399200,3.079399169921875,-0.020831650123000145,-0.0020429925061762333,-0.011531339958310127
1791048998417358000,3.089358154296875,-0.020401284098625183,-0.001265082973986864,-0.02399839647114277
1791048998427316200,3.099316162109375,-0.023048732429742813,-0.0035130572505295277,-0.06941594928503036
1791048998437275100,3.109275146484375,-0.015943685546517372,0.00036850012838840485,0.03550594300031662
1791048998447233300,3.1192333984375,-0.020899293944239616,-0.001821950078010559,-0.04483283683657646
1791048998457191200,3.129191162109375,-0.014718098565936089,-0.0032779001630842686,-0.0243587214499712
1791048998467150300,3.139150390625,-0.037010885775089264,-0.00037265801802277565,-0.04397236928343773
1791048998477108200,3.149108154296875,-0.029096238315105438,0.005937436129897833,0.027475181967020035
1791048998487066400,3.15906640625,-0.020182903856039047,0.0008116499520838261,-0.06509923189878464
1791048998497025300,3.169025390625,-0.007705462630838156,0.004197326488792896,-0.0030100238509476185
1791048998506983200,3.178983154296875,-0.03182917460799217,0.0037171586882323027,-0.02268385887145996
1791048998516941000,3.188941162109375,-0.030445395037531853,-0.00020700925961136818,-0.010935325175523758
1791048998526900200,3.198900146484375,-0.02123298868536949,-0.002643269021064043,-0.08395760506391525
1791048998536858000,3.208858154296875,-0.015662722289562225,0.005311060696840286,0.028509020805358887
1791048998546816000,3.21881591796875,-0.023000529035925865,0.00504767382517457,-0.015006233006715775
1791048998556775200,3.228775146484375,-0.019516848027706146,0.0017709205858409405,-0.016276560723781586
1791048998566733000,3.238733154296875,-0.016967670992016792,0.0016854330897331238,-0.0821988582611084
1791048998576691200,3.248691162109375,-0.00840906985104084,0.006815480068325996,0.017381267622113228
1791048998586650000,3.258650146484375,-0.017333589494228363,0.009830977767705917,0.008534247055649757
1791048998596608300,3.268608154296875,-0.0061789387837052345,0.0016585350967943668,-0.003918428439646959
1791048998606566100,3.278566162109375,-0.010287130251526833,0.0038396641612052917,-0.043893806636333466
1791048998616525000,3.288525146484375,-0.005047627724707127,0.00002228887751698494,-0.029943104833364487
1791048998626483200,3.298483154296875,-0.01201685331761837,0.002575195161625743,-0.005036157090216875
1791048998636441300,3.30844140625,-0.01093880645930767,0.0015589329414069653,0.029598519206047058
1791048998646400300,3.318400146484375,-0.006888404488563538,0.0004646400921046734,-0.03085843101143837
1791048998656358100,3.328358154296875,-0.004572519566863775,0.0008521298877894878,-0.01089298166334629
1791048998666316300,3.33831640625,-0.0180361308157444,0.004794140812009573,-0.029812075197696686
1791048998676275200,3.348275146484375,-0.009288178756833076,0.00331129296682775,0.030545540153980255
1791048998686233300,3.3582333984375,-0.008716665208339691,0.006107878405600786,-0.005301141645759344
1791048998696191000,3.36819091796875,-0.00019002193585038185,-0.001315949484705925,-0.017472585663199425
1791048998706150400,3.378150390625,-0.014884546399116516,0.005484965164214373,-0.03660047426819801
1791048998716108000,3.38810791015625,-0.008401080034673214,-0.000016327016055583954,0.02010381780564785
1791048998726066200,3.398066162109375,-0.021251097321510315,0.006117998156696558,0.006315833423286676
1791048998736025000,3.408025146484375,-0.01196279190480709,0.0024540212471038103,0.0005508887115865946
1791048998745983200,3.417983154296875,-0.012180637568235397,0.0014449497684836388,-0.04619158059358597
1791048998755941000,3.427941162109375,-0.01274070143699646,0.004767509177327156,0.010935619473457336
1791048998765900000,3.437900146484375,-0.020292360335588455,0.006232780404388905,0.015257397666573524
1791048998775858200,3.447858154296875,-0.00937393307685852,-0.0026153060607612133,-0.023496123030781746
1791048998785816300,3.45781640625,-0.007675368804484606,0.0023722623009234667,-0.0417984314262867
1791048998795775200,3.467775146484375,-0.009163277223706245,0.0012819641269743443,0.03484974056482315
1791048998805733000,3.477733154296875,-0.02693215385079384,0.00533396378159523,-0.01761826127767563
1791048998815691300,3.487691162109375,-0.013959895819425583,0.0005559865385293961,-0.016231819987297058
1791048998825650200,3.497650146484375,-0.019192740321159363,0.0041414001025259495,-0.029588904231786728
1791048998835608300,3.5076083984375,-0.015350332483649254,0.003405568888410926,0.04466482251882553
1791048998845566200,3.517566162109375,-0.02513025887310505,0.002968544140458107,-0.018143702298402786
1791048998855525400,3.527525390625,-0.024389633908867836,0.003733670338988304,-0.004509649705141783
1791048998865483300,3.537483154296875,-0.025228528305888176,0.0027134132105857134,-0.021697157993912697
1791048998875441200,3.547441162109375,-0.020901691168546677,0.005046608857810497,0.02147747576236725
1791048998885400300,3.557400390625,-0.03392375260591507,0.006947839632630348,0.005589589476585388
1791048998895358200,3.567358154296875,-0.026326283812522888,0.0049901497550308704,0.031799089163541794
1791048998905316000,3.577316162109375,-0.023724641650915146,0.0005322843790054321,-0.04381950572133064
1791048998915275000,3.58727490234375,-0.01970965974032879,-0.0006994274444878101,0.021869493648409843
1791048998925233200,3.597233154296875,-0.0324731282889843,0.0035613637883216143,-0.0030478406697511673
1791048998935191000,3.60719091796875,-0.016578050330281258,0.0006529255770146847,0.03117324598133564
1791048998945150200,3.617150146484375,-0.010792598128318787,-0.0030954736284911633,-0.031787075102329254
1791048998955108000,3.627108154296875,0.00233305711299181,-0.004019590560346842,0.026530025526881218
1791048998965066200,3.637066162109375,-0.014973228797316551,-0.005403102841228247,-0.01635911874473095
1791048998975025200,3.647025146484375,-0.01615886762738228,-0.007333095651119947,0.004111002199351788
1791048998984983300,3.6569833984375,-0.014214228838682175,-0.0018049059435725212,0.0038012766744941473
1791048998994941200,3.666941162109375,-0.009584056213498116,-0.0022464576177299023,0.023154469206929207
1791048999004900000,3.676900146484375,-0.009627731516957283,-0.005380998831242323,-0.036375969648361206
1791048999014858200,3.686858154296875,-0.010083665139973164,-0.002624893095344305,0.01077662780880928
1791048999024816400,3.69681640625,-0.02031686156988144,-0.0008301888592541218,-0.026939591392874718
1791048999034775300,3.706775390625,-0.01948196068406105,-0.001541252713650465,0.019574647769331932
1791048999044733200,3.716733154296875,-0.02230660244822502,-0.0012112949043512344,-0.04149957001209259
1791048999054691000,3.726691162109375,-0.025155918672680855,-0.002139672636985779,-0.0042595225386321545
1791048999064650200,3.736650146484375,-0.021672237664461136,-0.0004946384578943253,-0.02531607262790203
1791048999074608000,3.746608154296875,-0.016199175268411636,-0.0022853482514619827,0.00213952106423676
1791048999084566000,3.75656591796875,-0.009667772799730301,-0.00018597813323140144,-0.007212701719254255
1791048999094525200,3.766525146484375,-0.014658271335065365,-0.0007116859778761864,-0.02873343974351883
1791048999104483000,3.776483154296875,-0.011671002954244614,-0.0072630625218153,-0.03734477236866951
1791048999114441200,3.786441162109375,-0.018041284754872322,0.00042894575744867325,-0.0071205566637218
1791048999124400000,3.796400146484375,-0.003640240989625454,-0.0021820170804858208,0.01052102167159319
1791048999134358300,3.806358154296875,0.0031558796763420105,0.00007368018850684166,-0.014340918511152267
1791048999144317200,3.816317138671875,0.003818740602582693,-0.0057429298758506775,-0.027972042560577393
1791048999154275000,3.826275146484375,-0.009852331131696701,0.0010103140957653522,-0.0030893292278051376
1791048999164233200,3.836233154296875,-0.005596865434199572,-0.0049306657165288925,0.020497489720582962
1791048999174192000,3.846192138671875,-0.00857534445822239,-0.0008592251688241959,-0.005258474033325911
1791048999184150300,3.856150390625,-0.0026340987533330917,-0.006915253587067127,-0.015334278345108032
1791048999194108200,3.866108154296875,-0.015177054330706596,-0.0022930707782506943,-0.0025684149004518986
1791048999204067300,3.8760673828125,-0.009097324684262276,-0.001865101046860218,0.03517230600118637
1791048999214025200,3.886025146484375,-0.0008852009195834398,-0.0017649661749601364,0.020033832639455795
1791048999223983400,3.8959833984375,0.0069170622155070305,-0.0035897642374038696,0.04002990946173668
1791048999233942300,3.9059423828125,-0.0057542584836483,-0.0036792466416954994,-0.004371908027678728
1791048999243900400,3.915900390625,0.0025801043957471848,-0.00305047444999218,0.04239453002810478
1791048999253858000,3.925858154296875,-0.017922507598996162,-0.0037945611402392387,0.03587670996785164
1791048999263817500,3.9358173828125,-0.0033707290422171354,-0.0012826677411794662,0.07276256382465363
1791048999273775600,3.945775634765625,-0.012793258763849735,-0.00988068338483572,0.00868743471801281
1791048999283733500,3.9557333984375,-0.012261692434549332,-0.009150977246463299,0.029837194830179214
1791048999293692700,3.965692626953125,-0.023123927414417267,-0.0052441200241446495,0.04533519595861435
1791048999303650600,3.975650634765625,-0.0026367618702352047,-0.007326978258788586,0.06918434053659439
1791048999313608700,3.985608642578125,0.006158061325550079,-0.006438814103603363,0.03490865230560303
1791048999323567600,3.995567626953125,0.007789780385792255,-0.007875056937336922,0.02891068160533905
1791048999333525800,4.00552587890625,-0.014186625368893147,-0.006003387272357941,0.022433873265981674
1791048999343483400,4.0154833984375,0.0027335025370121002,-0.0073376307263970375,0.06319887936115265
1791048999353442600,4.025442626953125,-0.0026024070102721453,-0.00867693405598402,0.024440033361315727
1791048999363400400,4.035400390625,-0.008769489824771881,-0.003189224749803543,0.07090793550014496
1791048999373358600,4.045358642578125,0.0012898026034235954,-0.01126552652567625,0.09137006849050522
1791048999383317500,4.0553173828125,-0.018259398639202118,-0.011547555215656757,0.05305090546607971
1791048999393275400,4.065275390625,0.011838850565254688,-0.01569143310189247,0.025401167571544647
1791048999403233500,4.075233642578125,0.013342205435037613,-0.01114674936980009,0.008887438103556633
1791048999413192400,4.0851923828125,0.021110910922288895,-0.007843897677958012,0.07160861045122147
1791048999423150600,4.095150634765625,0.014570986852049828,-0.004874207079410553,0.08704935759305954
1791048999433108500,4.1051083984375,0.021671773865818977,-0.009314761497080326,0.06178127974271774
1791048999443067600,4.115067626953125,0.007272061891853809,-0.005569025874137878,0.029665421694517136
1791048999453025500,4.125025634765625,0.026248682290315628,-0.0076209912076592445,0.019252462312579155
1791048999462983700,4.134983642578125,0.015993380919098854,-0.0075775813311338425,0.026963111013174057
1791048999472942600,4.144942626953125,0.005782289430499077,-0.002742346376180649,0.09988951683044434
1791048999482900700,4.154900634765625,-0.001979759894311428,-0.004728531464934349,0.08276885747909546
1791048999492858600,4.164858642578125,0.01626742072403431,-0.007992235943675041,0.016789836809039116
1791048999502817500,4.174817626953125,0.022553812712430954,-0.008514481596648693,0.0008561438880860806
1791048999512775700,4.184775634765625,0.01651136577129364,-0.005897926166653633,0.04892886430025101
1791048999522734600,4.194734619140625,0.007326389662921429,-0.005905648693442345,0.08363837748765945
1791048999532692700,4.204692626953125,0.010742959566414356,-0.008485186845064163,0.037246108055114746
1791048999542650400,4.214650390625,0.02553761750459671,-0.013153708539903164,0.0024239467456936836
1791048999552609500,4.224609619140625,0.013998674228787422,-0.003273647278547287,0.04449896141886711
1791048999562567400,4.2345673828125,0.022607607766985893,-0.008921146392822266,0.05466771125793457
1791048999572525600,4.244525634765625,0.016546253114938736,-0.003761804662644863,0.019662056118249893
1791048999582484500,4.254484375,0.0240345299243927,-0.009226344525814056,0.011270701885223389
1791048999592442600,4.264442626953125,0.00871469546109438,-0.003489895723760128,0.032127246260643005
1791048999602400500,4.274400390625,0.00769577082246542,-0.003387896344065666,0.06614407151937485
1791048999612359400,4.284359375,-0.011310943402349949,-0.00518393237143755,0.013815619051456451
1791048999622317600,4.294317626953125,-0.001334742410108447,-0.008333653211593628,-0.015600593760609627
1791048999632275500,4.304275390625,-0.01219191774725914,-0.005391126498579979,0.0025150268338620663
1791048999642234600,4.314234619140625,-0.01243506371974945,-0.0034989500418305397,0.014422819018363953
1791048999652192500,4.324192626953125,-0.0162857286632061,0.0003194897435605526,0.041818223893642426
1791048999662150700,4.334150634765625,-0.018197346478700638,-0.0026150476187467575,0.004938236903399229
1791048999672109600,4.344109619140625,-0.0123080313205719,-0.004200426861643791,-0.03282618522644043
1791048999682067700,4.354067626953125,-0.014128035865724087,-0.0006626839749515057,-0.006524807307869196
1791048999692025600,4.364025634765625,-0.013429754413664341,-0.002158048562705517,0.02427172102034092
1791048999701984800,4.37398486328125,-0.01887512020766735,0.0026638705749064684,0.009039239026606083
1791048999711942700,4.383942626953125,-0.006546015851199627,-0.003718661144375801,-0.015057841315865517
1791048999721900500,4.393900634765625,-0.012687797658145428,-0.0007122186943888664,-0.03456203639507294
1791048999731859500,4.403859375,-0.0023059973027557135,0.00014159083366394043,0.01073860190808773
1791048999741817600,4.413817626953125,-0.016312360763549805,-0.0003502951003611088,-0.028774451464414597
1791048999751775500,4.423775390625,-0.012771687470376492,-0.001889602281153202,-0.03703770786523819
1791048999761734400,4.433734375,-0.025162843987345695,0.00265028839930892,-0.01767120137810707
1791048999771692500,4.443692626953125,-0.015567474067211151,0.0024889009073376656,-0.018490923568606377
1791048999781650400,4.453650390625,-0.019699901342391968,0.0019376266282051802,-0.05662019923329353
1791048999791609600,4.463609619140625,-0.0315144807100296,0.0001117633655667305,-0.04979211837053299
1791048999801567500,4.4735673828125,-0.03895881772041321,0.006816537585109472,-0.031193669885396957
1791048999811526700,4.483526611328125,-0.0372123159468174,0.007998981513082981,-0.05233384296298027
1791048999821484500,4.493484619140625,-0.038393162190914154,0.005543280392885208,-0.07028274238109589
1791048999831442700,4.503442626953125,-0.0531526654958725,0.009033619426190853,-0.06121894344687462
1791048999841401600,4.513401611328125,-0.05653754249215126,0.012805720791220665,-0.02578505501151085
1791048999851359500,4.523359375,-0.05950989946722984,0.010894902050495148,-0.08666358143091202
1791048999861317600,4.533317626953125,-0.046823132783174515,0.013054460287094116,-0.01610446348786354
1791048999871276500,4.543276611328125,-0.040032338351011276,0.0075763375498354435,-0.058920372277498245
1791048999881234700,4.553234619140625,-0.026134897023439407,0.006857816595584154,-0.05660209059715271
1791048999891192600,4.563192626953125,-0.034788839519023895,-0.0050041694194078445,-0.13724713027477264
1791048999901151700,4.57315185546875,-0.03507406264543533,-0.005316025577485561,-0.07220155000686646
1791048999911109400,4.583109375,-0.03849649056792259,0.0038985121063888073,0.021056219935417175
1791048999921067500,4.593067626953125,-0.024195317178964615,0.0064863055013120174,0.0001112576574087143
1791048999931026400,4.6030263671875,-0.02844412438571453,-0.009893733076751232,-0.0913960188627243
1791048999940984600,4.612984619140625,-0.02230340801179409,-0.009479344822466373,-0.12553802132606506
1791048999950942500,4.6229423828125,-0.017877764999866486,-0.004943981766700745,-0.024844693019986153
1791048999960901400,4.6329013671875,-0.030376780778169632,-0.0003982321359217167,-0.022282730787992477
1791048999970859500,4.642859619140625,-0.016979748383164406,-0.010281755588948727,-0.019512778148055077
1791048999980817700,4.652817626953125,-0.025690948590636253,-0.004051555879414082,-0.056212469935417175
1791048999990776600,4.662776611328125,-0.017627961933612823,-0.007738436572253704,-0.04539630562067032
1791049000000734500,4.672734375,-0.03205909952521324,-0.0017724232748150826,-0.07218796759843826
1791049000010692600,4.682692626953125,-0.028453977778553963,-0.002916783094406128,-0.029115069657564163
1791049000020651500,4.692651611328125,-0.03408150374889374,0.0012249648571014404,0.06217329576611519
1791049000030609700,4.702609619140625,-0.01689319685101509,0.0006009861826896667,0.003496135352179408
1791049000040567600,4.712567626953125,-0.021297264844179153,-0.011065523140132427,-0.0715823695063591
1791049000050526700,4.722526611328125,-0.0002463085111230612,-0.018851540982723236,-0.1084280014038086
1791049000060484600,4.732484619140625,0.007003229111433029,-0.005193429999053478,0.00108130625449121
1791049000070443500,4.742443603515625,-0.008475062437355518,-0.008339955471456051,0.004223570227622986
1791049000080401700,4.752401611328125,0.002452153479680419,-0.01031921710819006,-0.03432941436767578
1791049000090359600,4.762359619140625,0.008193928748369217,-0.011906460858881474,-0.040609680116176605
1791049000100318700,4.772318603515625,0.009626442566514015,-0.01086143683642149,-0.0006263125687837601
1791049000110276400,4.7822763671875,0.010055744089186192,-0.012230033986270428,-0.027509590610861778
1791049000120234500,4.792234375,0.008385942317545414,-0.01936997100710869,-0.06174159422516823
1791049000130193400,4.802193359375,0.008382214233279228,-0.017659954726696014,-0.058547135442495346
1791049000140151600,4.812151611328125,0.010738578625023365,-0.018215756863355637,-0.026568695902824402
1791049000150109400,4.822109375,0.026474133133888245,-0.020733240991830826,-0.027135416865348816
1791049000160068600,4.832068603515625,0.011821419931948185,-0.018003500998020172,-0.07028262317180634
1791049000170026500,4.842026611328125,0.006672730669379234,-0.01828259974718094,-0.028521858155727386
1791049000179984600,4.851984619140625,0.008444798178970814,-0.018505774438381195,-0.004811203572899103
1791049000189943600,4.861943603515625,0.01788916625082493,-0.01398692186921835,0.002026461996138096
1791049000199901700,4.871901611328125,0.019898520782589912,-0.025528527796268463,-0.011310115456581116
1791049000209859600,4.881859619140625,0.015245446935296059,-0.026209764182567596,-0.03897503390908241
1791049000219818500,4.891818603515625,0.014610016718506813,-0.02382863312959671,-0.04261104762554169
1791049000229776600,4.901776611328125,0.027852851897478104,-0.025537319481372833,-0.04920583218336105
1791049000239734500,4.911734619140625,0.03112773969769478,-0.018785670399665833,0.0016645386349409819
1791049000249693700,4.921693603515625,0.020704127848148346,-0.012699815444648266,0.0214033555239439
1791049000259651600,4.931651611328125,0.027083730325102806,-0.01913374662399292,-0.03154534474015236
1791049000269609500,4.941609375,0.011677876114845276,-0.00984251033514738,-0.048962950706481934
1791049000279568400,4.951568359375,0.03770974278450012,-0.01630626991391182,-0.028989508748054504
1791049000289526500,4.961526611328125,0.03120497241616249,-0.012800217606127262,0.031177956610918045
1791049000299485400,4.9714853515625,0.02240588702261448,-0.011562912724912167,0.011871902272105217
1791049000309443600,4.981443603515625,0.0138065405189991,-0.016078036278486252,-0.0442933663725853
1791049000319401500,4.9914013671875,0.016176488250494003,-0.005160673521459103,-0.02018296904861927
1791049000329360400,5.0013603515625,0.042064275592565536,-0.004802744835615158,0.06795700639486313
1791049000339318300,5.011318359375,0.022452758625149727,0.0005486113950610161,0.03706034645438194
1791049000349276400,5.0212763671875,0.022747304290533066,-0.01525938045233488,-0.041220344603061676
1791049000359235300,5.0312353515625,0.020926501601934433,-0.01098314207047224,-0.02173665724694729
1791049000369193200,5.041193115234375,0.03035915270447731,-0.009072590619325638,0.06576655805110931
1791049000379151400,5.0511513671875,0.04391038045287132,0.0021060279104858637,0.11853016912937164
1791049000389110300,5.0611103515625,0.022869011387228966,-0.014238591305911541,-0.020433573052287102
1791049000399068400,5.071068359375,0.027433669194579124,-0.02407258003950119,-0.04070821776986122
1791049000409026300,5.0810263671875,-0.002727694809436798,-0.008332498371601105,0.054895803332328796
1791049000418985500,5.0909853515625,0.019674282521009445,-0.0029640980064868927,0.11144828796386719
1791049000428943400,5.100943359375,0.008638676255941391,-0.0008511459454894066,0.06407970935106277
1791049000438901500,5.110901611328125,0.005478302948176861,-0.0073804184794425964,0.011522496119141579
1791049000448860400,5.1208603515625,-0.00011619902215898037,-0.0057742660865187645,0.03550106659531593
1791049000458818600,5.130818603515625,-0.0009156798478215933,0.006685066968202591,0.02205050364136696
1791049000468776400,5.1407763671875,0.005060186609625816,0.0011145328171551228,0.09858309477567673
1791049000478735400,5.1507353515625,-0.026071900501847267,0.014085458591580391,0.13963758945465088
1791049000488693500,5.160693603515625,-0.0006661417428404093,0.006554571911692619,0.08056733757257462
1791049000498652400,5.17065234375,-0.0018693578895181417,-0.0017771273851394653,-0.034291598945856094
1791049000508610600,5.180610595703125,-0.003804410807788372,-0.007420099340379238,-0.007341472897678614
1791049000518568200,5.190568115234375,-0.0021902688313275576,0.005120459944009781,0.1591191440820694
1791049000528527600,5.200527587890625,-0.02248542010784149,0.01841309666633606,0.10574060678482056
1791049000538485200,5.2104853515625,-0.007771189324557781,-0.009125853888690472,0.035506393760442734
1791049000548443400,5.220443359375,-0.022250795736908913,0.006191849708557129,-0.01868334226310253
1791049000558402300,5.23040234375,-0.007740030065178871,0.00046285754069685936,0.06609944999217987
1791049000568360400,5.2403603515625,-0.02132614701986313,0.0008415589109063148,0.0536411888897419
1791049000578318300,5.250318359375,-0.02301592193543911,0.00013608764857053757,-0.03403646498918533
1791049000588277200,5.26027734375,-0.0052571650594472885,0.00016831187531352043,0.03925212845206261
1791049000598235400,5.2702353515625,-0.03620815649628639,0.012944027781486511,0.03513115271925926
1791049000608193300,5.280193359375,-0.01398860476911068,0.0028996500186622143,-0.009964155033230782
1791049000618152400,5.29015234375,-0.0439092181622982,0.012019379064440727,-0.04426886513829231
1791049000628110300,5.3001103515625,-0.024566946551203728,0.013702496886253357,0.004172171000391245
1791049000638068500,5.310068359375,-0.03148770332336426,0.007666175253689289,0.014429336413741112
1791049000648027400,5.32002734375,-0.03920527920126915,0.008088286966085434,-0.045182328671216965
1791049000657985500,5.329985595703125,-0.021775688976049423,-0.0000037280842661857605,-0.04607555270195007
1791049000667943400,5.339943359375,-0.021975958719849586,0.007657120935618877,-0.0779743641614914
1791049000677902300,5.34990234375,-0.010688149370253086,0.0003398195840418339,-0.10338625311851501
1791049000687860500,5.359860595703125,-0.03736423701047897,0.005458681378513575,0.00384300434961915
1791049000697819400,5.3698193359375,-0.04012726619839668,0.011061972007155418,0.026128336787223816
1791049000707777500,5.379777587890625,-0.01772874779999256,0.0032921999227255583,-0.014215890318155289
1791049000717735200,5.389735107421875,-0.020342640578746796,-0.0043896883726119995,-0.15108825266361237
1791049000727694600,5.399694580078125,-0.006575429812073708,-0.011084076948463917,-0.11920036375522614
1791049000737652200,5.40965234375,-0.032798245549201965,0.000019974075257778168,-0.012931181117892265
1791049000747610400,5.4196103515625,-0.0026214346289634705,0.004950284026563168,0.02278340607881546
1791049000757569300,5.4295693359375,-0.004601494874805212,-0.002917226403951645,-0.04220518097281456
1791049000767527400,5.43952734375,0.0015136555302888155,-0.009862218052148819,-0.0846562385559082
1791049000777485300,5.4494853515625,-0.00013350951485335827,-0.01575552672147751,-0.09625057876110077
1791049000787444500,5.459444580078125,-0.01965687796473503,-0.006048571318387985,-0.030719764530658722
1791049000797402400,5.46940234375,0.0018087339121848345,-0.008333031088113785,0.04011685773730278
1791049000807360500,5.479360595703125,-0.018594542518258095,0.00809281412512064,0.040193554013967514
1791049000817319400,5.4893193359375,0.007195509970188141,-0.013875600881874561,-0.0602041520178318
1791049000827277300,5.49927734375,-0.002898669568821788,-0.023273631930351257,-0.09888843446969986
1791049000837235500,5.5092353515625,-0.0034241112880408764,-0.0073316823691129684,-0.0058852569200098515
1791049000847194400,5.5191943359375,-0.010902267880737782,-0.012223376892507076,0.06225784495472908
1791049000857152500,5.529152587890625,-0.021664367988705635,-0.005524727515876293,0.025142434984445572
1791049000867110400,5.5391103515625,0.010384911671280861,-0.01787114143371582,-0.02505282498896122
1791049000877069600,5.549069580078125,-0.012401094660162926,-0.020076774060726166,-0.07211700826883316
1791049000887027500,5.55902734375,0.003339519025757909,-0.013909424655139446,-0.0306428000330925
1791049000896986400,5.568986328125,0.0014255049172788858,-0.010429470799863338,0.10997716337442398
1791049000906944500,5.578944580078125,0.004512108862400055,-0.000760598573833704,0.04824801906943321
1791049000916902400,5.58890234375,0.037973128259181976,-0.024926654994487762,-0.04791819304227829
1791049000926861300,5.598861328125,0.0015730441082268953,-0.02713388204574585,-0.07399613410234451
1791049000936819200,5.608819091796875,0.0398234948515892,-0.02146853879094124,0.017263472080230713
1791049000946777300,5.61877734375,0.019203435629606247,-0.017368339002132416,0.0747765600681305
1791049000956736300,5.628736328125,0.012579888105392456,-0.009136239998042583,0.043579500168561935
1791049000966694400,5.6386943359375,0.04853762313723564,-0.026750385761260986,-0.029058750718832016
1791049000976652300,5.64865234375,0.01782871223986149,-0.013901167549192905,-0.03902403637766838
1791049000986611500,5.658611572265625,0.048309922218322754,-0.018142517656087875,0.036527447402477264
1791049000996570400,5.6685703125,0.007096173241734505,-0.007585481740534306,0.08095189929008484
1791049001006528300,5.6785283203125,0.023224810138344765,-0.008471248671412468,0.03772720322012901
1791049001016486400,5.688486328125,0.031410835683345795,-0.02057158574461937,-0.04701405018568039
1791049001026445300,5.6984453125,0.00586339645087719,-0.01007979828864336,-0.01915312558412552
1791049001036403500,5.708403564453125,0.03829750418663025,-0.010949852876365185,0.09252386540174484
1791049001046361300,5.718361328125,0.02108176425099373,0.0009403624571859837,0.059702541679143906
1791049001056320500,5.728320556640625,0.0379965640604496,-0.01595446467399597,-0.06447560340166092
1791049001066278400,5.7382783203125,0.02463921532034874,-0.028445754200220108,-0.0894283577799797
1791049001076236500,5.748236572265625,-0.004575023427605629,0.005281605292111635,0.08919766545295715
1791049001086195500,5.758195556640625,0.035049084573984146,0.019296489655971527,0.16655504703521729
1791049001096153600,5.768153564453125,-0.0019390267552807927,0.0018527854699641466,0.030608385801315308
1791049001106112500,5.778112548828125,0.018327629193663597,-0.017168045043945312,-0.11752941459417343
1791049001116070400,5.7880703125,-0.010455016978085041,-0.03184818848967552,-0.11833076179027557
1791049001126028300,5.7980283203125,0.03242427483201027,0.004346303176134825,-0.004687552340328693
1791049001135987200,5.8079873046875,-0.01177408080548048,-0.0004979870282113552,0.08285081386566162
1791049001145945300,5.8179453125,-0.0057790386490523815,0.010007651522755623,0.006908116862177849
1791049001155903200,5.8279033203125,0.01401490531861782,-0.00580912921577692,-0.052262529730796814
1791049001165862400,5.8378623046875,-0.015062818303704262,0.0018077779095619917,-0.05987251549959183
1791049001175820300,5.8478203125,-0.00593430083245039,0.008021465502679348,0.05842723697423935
1791049001185778400,5.8577783203125,-0.003225599881261587,0.011508341878652573,0.013543383218348026
1791049001195737300,5.8677373046875,-0.004159570671617985,-0.00011901883408427238,-0.10460642725229263
1791049001205695500,5.877695556640625,0.0045979684218764305,-0.01121960673481226,-0.140339657664299
1791049001215653400,5.8876533203125,-0.022114869207143784,0.007547955494374037,-0.05260367691516876
1791049001225612300,5.8976123046875,-0.019524412229657173,0.012915024533867836,0.09828197211027145
1791049001235570400,5.9075703125,-0.029356002807617188,0.016207223758101463,0.03308592736721039
1791049001245528600,5.917528564453125,-0.024529024958610535,0.004938057623803616,-0.07758413255214691
1791049001255487500,5.927487548828125,-0.019709501415491104,-0.0015440764836966991,-0.08062200248241425
1791049001265444900,5.93744482421875,-0.04615309461951256,0.011754151433706284,0.020684383809566498
1791049001275402800,5.94740283203125,-0.03544718399643898,0.009671026840806007,0.05721629410982132
1791049001285361700,5.957361572265625,-0.043601520359516144,-0.001034613698720932,-0.08599971979856491
1791049001295319800,5.96731982421875,-0.027059826999902725,-0.0077942488715052605,-0.10887175053358078
1791049001305278700,5.97727880859375,-0.03461388126015663,-0.0036498382687568665,-0.03148161619901657
1791049001315236600,5.987236572265625,-0.04670197144150734,0.006718114484101534,0.04192229360342026
1791049001325194500,5.997194580078125,-0.025244349613785744,0.004863488953560591,0.057319626212120056
1791049001335153700,6.007153564453125,-0.038185980170965195,0.0016290796920657158,-0.01625366136431694
1791049001345111600,6.017111572265625,-0.019663428887724876,-0.005938026122748852,-0.019345058128237724
1791049001355069700,6.027069580078125,-0.03353822976350784,0.0009704800322651863,0.009356360882520676
1791049001365028600,6.037028564453125,-0.026267802342772484,-0.0005043782293796539,0.0358034148812294
1791049001374986800,6.04698681640625,-0.021644022315740585,-0.0075052957981824875,0.0017799341585487127
1791049001384944600,6.056944580078125,-0.020441338419914246,-0.006151345558464527,-0.04060906916856766
1791049001394903600,6.066903564453125,-0.019298309460282326,-0.007697043940424919,-0.002898973412811756
1791049001404861700,6.07686181640625,-0.02624862641096115,-0.007137780077755451,0.02437499165534973
1791049001414819800,6.08681982421875,-0.029163723811507225,-0.005338282324373722,0.0363813191652298
1791049001424778800,6.09677880859375,-0.0237822737544775,-0.0033251987770199776,0.026640010997653008
1791049001434736600,6.106736572265625,-0.015545915812253952,-0.00318831205368042,0.05293313413858414
1791049001444694800,6.11669482421875,-0.0042021810077130795,-0.007420341484248638,-0.022235654294490814
1791049001454653700,6.12665380859375,-0.0014628535136580467,-0.002702285535633564,0.03880666196346283
1791049001464611800,6.13661181640625,-0.01908738724887371,-0.0041672904044389725,0.005269740708172321
1791049001474570800,6.14657080078125,-0.007978010922670364,-0.005952406674623489,0.05906186252832413
1791049001484529000,6.15652880859375,-0.01179991289973259,-0.0020929542370140553,0.007235419936478138
1791049001494486500,6.166486572265625,-0.0036346614360809326,-0.0015315595082938671,0.04488186538219452
1791049001504445700,6.17644580078125,0.0005291909910738468,-0.0036186790093779564,0.0017043002881109715
1791049001514403600,6.186403564453125,0.0029172473587095737,-0.003924942575395107,0.04820815473794937
1791049001524361700,6.19636181640625,-0.007297839503735304,0.0012953858822584152,0.05301649123430252
1791049001534320600,6.206320556640625,-0.005158788524568081,-0.0007832115516066551,0.02449323609471321
1791049001544278500,6.216278564453125,0.028289448469877243,-0.009940757416188717,0.0009599467739462852
1791049001554236700,6.226236572265625,0.0115189915522933,-0.005032551474869251,0.011401401832699776
1791049001564195600,6.236195556640625,0.006306120194494724,-0.007978007197380066,0.08359170705080032
1791049001574153700,6.24615380859375,0.00889977253973484,-0.007454962469637394,0.02750473842024803
1791049001584111600,6.256111572265625,0.02851315587759018,-0.011477933265268803,-0.018132520839571953
1791049001594070800,6.26607080078125,0.025492331013083458,-0.011753038503229618,-0.03498101234436035
1791049001604028700,6.276028564453125,0.019983049482107162,-0.003513484261929989,0.08066915720701218
1791049001613986800,6.28598681640625,0.0018674293532967567,-0.001560587901622057,0.07801691442728043
1791049001623945700,6.29594580078125,0.024635592475533485,-0.004734543152153492,0.013280794955790043
1791049001633903600,6.305903564453125,0.02862793579697609,-0.01079563144594431,-0.09129941463470459
1791049001643862800,6.31586279296875,0.015246085822582245,-0.007128724828362465,0.02341412380337715
1791049001653820700,6.325820556640625,-0.009847549721598625,-0.0009661708027124405,0.07741770148277283
1791049001663778800,6.33577880859375,-0.007762561086565256,0.006038209423422813,0.0885438546538353
1791049001673737700,6.34573779296875,0.002823237795382738,-0.00571724958717823,-0.022483326494693756
1791049001683695900,6.35569580078125,0.004168666899204254,-0.006658943369984627,-0.007918765768408775
1791049001693653500,6.365653564453125,-0.008905589580535889,0.0012328014709055424,0.06571337580680847
1791049001703613000,6.375613037109375,-0.012132542207837105,0.0010314667597413063,0.08761947602033615
1791049001713570600,6.385570556640625,0.005273878574371338,-0.004103907383978367,0.012469329871237278
1791049001723528700,6.39552880859375,0.011026040650904179,-0.007250431925058365,-0.062371626496315
1791049001733487600,6.405487548828125,-0.0013680449919775128,-0.008757514879107475,-0.003181534819304943
1791049001743445800,6.41544580078125,-0.0002910627517849207,-0.0030053528025746346,0.04065515846014023
1791049001753403600,6.425403564453125,-0.0015813641948625445,0.005679481662809849,0.11324121057987213
1791049001763362600,6.435362548828125,-0.0015339599922299385,-0.0056887539103627205,-0.037519268691539764
1791049001773320700,6.44532080078125,0.008821741677820683,-0.0057862261310219765,-0.021768001839518547
1791049001783279600,6.455279541015625,-0.000883882399648428,-0.0045814113691449165,-0.002476862631738186
1791049001793237800,6.46523779296875,-0.0032240019645541906,0.005685873329639435,0.08397067338228226
1791049001803195600,6.475195556640625,0.008855031803250313,0.00040695536881685257,-0.004449199885129929
1791049001813154800,6.48515478515625,0.03038029745221138,-0.009528233669698238,-0.09925267845392227
1791049001823112700,6.49511279296875,0.02863406389951706,-0.008272286504507065,-0.03850942850112915
1791049001833070800,6.50507080078125,0.006037939339876175,0.000282851979136467,0.027159059420228004
1791049001843029800,6.51502978515625,0.02116948738694191,0.005066954530775547,0.0570509135723114
1791049001852987600,6.524987548828125,0.03237020969390869,-0.0067478930577635765,-0.07350177317857742
1791049001862945800,6.53494580078125,0.057717643678188324,-0.013424438424408436,-0.08353389799594879
1791049001872904700,6.54490478515625,0.026144806295633316,-0.014216196723282337,-0.07620994001626968
1791049001882862600,6.554862548828125,0.014814386144280434,-0.000022079795598983765,0.03917524218559265
1791049001892820500,6.564820556640625,0.03948324918746948,0.0011228127405047417,-0.00545134674757719
1791049001902779600,6.574779541015625,0.03709998354315758,-0.006563602946698666,-0.05742853134870529
1791049001912737500,6.584737548828125,0.025425219908356667,-0.016692135483026505,-0.13297894597053528
1791049001922695700,6.59469580078125,0.0011169505305588245,-0.015422874130308628,-0.07472043484449387
1791049001932654600,6.604654541015625,0.009388728998601437,-0.0037710117176175117,-0.012366510927677155
1791049001942612700,6.61461279296875,0.02658582478761673,0.001122546847909689,-0.007227675057947636
1791049001952571600,6.624571533203125,0.010047328658401966,-0.006431776098906994,-0.03390802443027496
1791049001962529500,6.634529541015625,-0.006221389397978783,-0.0070738643407821655,-0.09087304025888443
1791049001972487700,6.64448779296875,0.0012043020687997341,-0.011986064724624157,-0.10537634789943695
1791049001982446600,6.654446533203125,0.003658138681203127,-0.0024564750492572784,-0.02821951173245907
1791049001992404700,6.66440478515625,0.002099923323839903,0.0014386638067662716,0.017164215445518494
1791049002002362600,6.674362548828125,-0.00590607151389122,-0.0059353625401854515,-0.06691497564315796
1791049002012321800,6.68432177734375,-0.004378748591989279,-0.01133785117417574,-0.11940614879131317
1791049002022279700,6.69427978515625,0.005325810052454472,-0.006932983174920082,-0.08811879903078079
1791049002032237800,6.70423779296875,0.0009454428218305111,0.0008447789587080479,0.00382550829090178
1791049002042196700,6.71419677734375,-0.006669599562883377,-0.0017518028616905212,-0.014944717288017273
1791049002052155000,6.72415478515625,0.0040408349595963955,-0.004433605819940567,-0.07486610859632492
1791049002062112500,6.734112548828125,-0.002202147152274847,-0.003145434893667698,-0.08284121006727219
1791049002072071700,6.74407177734375,-0.005730569362640381,-0.002131836488842964,-0.06578020006418228
1791049002082029600,6.754029541015625,-0.0015395525842905045,0.006426231935620308,-0.0028073606081306934
1791049002091987700,6.76398779296875,-0.0000880060251802206,0.0024978388100862503,-0.023381603881716728
1791049002101946600,6.773946533203125,0.0005399673245847225,-0.0002952846698462963,-0.0784994512796402
1791049002111904500,6.783904541015625,-0.01119525171816349,0.00418228842318058,-0.07548847794532776
1791049002121863700,6.79386376953125,-0.013556942343711853,0.0030499121639877558,0.0019069737754762173
1791049002131821600,6.803821533203125,-0.022590652108192444,0.0064531657844781876,-0.012452790513634682
1791049002141779700,6.81377978515625,-0.02731856144964695,0.008620180189609528,-0.08027365058660507
1791049002151738600,6.823738525390625,-0.028549209237098694,0.011514769867062569,-0.10062499344348907
1791049002161696800,6.83369677734375,-0.01804277114570141,0.01389616820961237,-0.0774693414568901
1791049002171654700,6.843654541015625,-0.016467245295643806,0.014768886379897594,-0.022344570606946945
1791049002181613600,6.853613525390625,-0.027350520715117455,0.016765456646680832,-0.0331633985042572
1791049002191571700,6.86357177734375,-0.007650318089872599,0.007736010476946831,-0.1073039323091507
1791049002201529900,6.87352978515625,-0.006458819843828678,0.006567681673914194,-0.11290588974952698
1791049002211488800,6.88348876953125,-0.014978272840380669,0.014449839480221272,-0.043817371129989624
1791049002221446700,6.89344677734375,-0.003222014056518674,0.007750923745334148,-0.04869069159030914
1791049002231404800,6.90340478515625,-0.00030824937857687473,0.007583677768707275,-0.0767257809638977
1791049002241363700,6.91336376953125,0.0010406416840851307,0.008498739451169968,-0.13057410717010498
1791049002251321900,6.92332177734375,0.000663271639496088,0.0028437834698706865,-0.08143825083971024
1791049002261280800,6.93328076171875,-0.00478688720613718,0.009945901110768318,-0.018718410283327103
1791049002271238700,6.94323876953125,-0.0003497947473078966,0.008076095953583717,-0.03375408798456192
1791049002281196500,6.953196533203125,0.0015895189717411995,-0.0002350970171391964,-0.11007095873355865
1791049002291155500,6.963155517578125,0.0021700882352888584,-0.010526882484555244,-0.09850218892097473
1791049002301113600,6.973113525390625,-0.0030337285716086626,-0.0031941356137394905,0.005296645220369101
1791049002311071700,6.98307177734375,0.0013602208346128464,-0.004659939557313919,0.010701264254748821
1791049002321030700,6.99303076171875,0.011747347190976143,-0.015562653541564941,-0.08666203916072845
1791049002330988300,7.00298828125,0.016031574457883835,-0.016615135595202446,-0.07010330259799957
1791049002340946400,7.012946533203125,0.01311221718788147,-0.014035064727067947,0.009472748264670372
1791049002350905300,7.0229052734375,0.006268160883337259,-0.013517612591385841,0.05132192373275757
1791049002360863500,7.032863525390625,0.019928844645619392,-0.02282536029815674,0.04197210073471069
1791049002370821400,7.0428212890625,0.012580916285514832,-0.02054942399263382,0.009046109393239021
1791049002380780500,7.052780517578125,0.019519250839948654,-0.029230264946818352,0.009496184065937996
1791049002390738400,7.062738525390625,0.0420226976275444,-0.03213976323604584,0.056900180876255035
1791049002400697300,7.072697265625,0.042209651321172714,-0.03305695950984955,0.10679291188716888
1791049002410655500,7.082655517578125,0.0424293614923954,-0.030584214255213737,0.09423583745956421
1791049002420613600,7.092613525390625,0.055204544216394424,-0.04257509857416153,0.010930828750133514
1791049002430572500,7.102572509765625,0.06083766743540764,-0.03915853053331375,0.024406956508755684
1791049002440530400,7.112530517578125,0.06463266164064407,-0.03383753448724747,0.1124768927693367
1791049002450488600,7.122488525390625,0.056407760828733444,-0.026254979893565178,0.13455209136009216
1791049002460447500,7.132447509765625,0.05919609218835831,-0.029615623876452446,0.10163729637861252
1791049002470405600,7.142405517578125,0.07262374460697174,-0.02945849485695362,0.04148314148187637
1791049002480363500,7.152363525390625,0.07172626256942749,-0.024261869490146637,0.04913228005170822
1791049002490322700,7.16232275390625,0.056480199098587036,-0.018411969766020775,0.1168961450457573
1791049002500280600,7.172280517578125,0.04908246919512749,-0.014620160683989525,0.12064987421035767
1791049002510238500,7.182238525390625,0.04478279873728752,-0.012966338545084,0.07008309662342072
1791049002520197600,7.19219775390625,0.04421181604266167,-0.004115588963031769,0.0373041108250618
1791049002530155500,7.202155517578125,0.05029207840561867,-0.0010308497585356236,0.037172816693782806
1791049002540114400,7.212114501953125,0.036499567329883575,0.00794240552932024,0.12387415766716003
1791049002550072300,7.222072265625,0.019636696204543114,0.011381078511476517,0.09828784316778183
1791049002560030500,7.232030517578125,0.015293613076210022,0.012852475047111511,0.08015943318605423
1791049002569989400,7.2419892578125,0.0024103051982820034,0.011614371091127396,0.025672489777207375
1791049002579947500,7.251947509765625,0.008578985929489136,0.021641705185174942,0.062020376324653625
1791049002589905400,7.261905517578125,0.005721679423004389,0.019842473790049553,0.05020632594823837
1791049002599864600,7.271864501953125,-0.010074060410261154,0.026467353105545044,0.058516986668109894
1791049002609822500,7.281822509765625,-0.03111409954726696,0.024473445490002632,0.059740446507930756
1791049002619780600,7.291780517578125,-0.03599300980567932,0.025389838963747025,0.03167392313480377
1791049002629739500,7.301739501953125,-0.028842955827713013,0.02710731141269207,0.023617062717676163
1791049002639697700,7.31169775390625,-0.035358645021915436,0.03228715807199478,0.043543100357055664
1791049002649656600,7.321656494140625,-0.03952542692422867,0.029076986014842987,0.0562295988202095
1791049002659614500,7.331614501953125,-0.059535350650548935,0.028939299285411835,0.0099140340462327
1791049002669572600,7.341572509765625,-0.05073174089193344,0.03310368210077286,0.03720424324274063
1791049002679531500,7.351531494140625,-0.05216052755713463,0.030991265550255775,0.04952508956193924
1791049002689489700,7.36148974609375,-0.06851686537265778,0.03167649731040001,0.026625368744134903
1791049002699447600,7.371447509765625,-0.06522679328918457,0.026070808991789818,0.038664452731609344
1791049002709406700,7.38140673828125,-0.08330699801445007,0.025807155296206474,0.07307356595993042
1791049002719364400,7.3913642578125,-0.08895742893218994,0.029053017497062683,0.12365551292896271
1791049002729322500,7.401322509765625,-0.08096874505281448,0.033812619745731354,0.1095583364367485
1791049002739281400,7.411281494140625,-0.10815322399139404,0.018669618293642998,0.0015628933906555176
1791049002749239600,7.421239501953125,-0.09438148885965347,0.017328450456261635,-0.011486063711345196
1791049002759197400,7.431197509765625,-0.10359575599431992,0.02584790252149105,0.08777927607297897
1791049002769156400,7.44115625,-0.10226418077945709,0.0268029123544693,0.11376533657312393
1791049002779114500,7.451114501953125,-0.08602981269359589,0.013275384902954102,0.01187145709991455
1791049002789073400,7.461073486328125,-0.07238244265317917,0.007952258922159672,-0.01731439121067524
1791049002799031600,7.471031494140625,-0.08033011853694916,0.00651361932978034,0.07854795455932617
1791049002808989400,7.480989501953125,-0.09648964554071426,0.01389323826879263,0.12714850902557373
1791049002818948600,7.490948486328125,-0.05883999913930893,0.018170274794101715,0.07642488181591034
1791049002828906500,7.500906494140625,-0.05483327433466911,0.0017156684771180153,-0.026538781821727753
1791049002838864600,7.51086474609375,-0.04880041629076004,0.002639252692461014,-0.05648016929626465
1791049002848823600,7.520823486328125,-0.05325721576809883,0.005305076949298382,0.018931763246655464
1791049002858781700,7.53078173828125,-0.0484217144548893,0.004803869873285294,0.014262443408370018
1791049002868739600,7.540739501953125,-0.0244977418333292,-0.0020678844302892685,-0.04111053794622421
1791049002878698500,7.550698486328125,-0.014409421011805534,-0.010042719542980194,-0.11138442903757095
1791049002888656600,7.56065673828125,-0.025172321125864983,-0.003876437433063984,-0.006836983375251293
1791049002898614500,7.570614501953125,-0.02731243707239628,-0.0006758500821888447,0.014831027947366238
1791049002908573700,7.58057373046875,-0.0036635659635066986,-0.004238626919686794,-0.06364460289478302
1791049002918531300,7.59053125,0.01972750946879387,-0.012418527156114578,-0.11160334199666977
1791049002928489500,7.600489501953125,0.023266850039362907,-0.009304225444793701,-0.09024691581726074
1791049002938448400,7.610448486328125,0.013005690649151802,-0.007469041272997856,-0.04353960603475571
1791049002948406500,7.620406494140625,0.0134805329144001,-0.008159066550433636,-0.04345092177391052
1791049002958365400,7.630365478515625,0.020609281957149506,-0.01591312699019909,-0.09857648611068726
1791049002968323600,7.640323486328125,0.019445747137069702,-0.018887611106038094,-0.10892579704523087
1791049002978281500,7.650281494140625,0.02094750478863716,-0.014512836933135986,-0.032582029700279236
1791049002988240400,7.660240478515625,0.00805913656949997,-0.011910928413271904,0.0016475818119943142
1791049002998198500,7.670198486328125,0.01865079440176487,-0.019619714468717575,-0.0761398896574974
1791049003008156400,7.680156494140625,0.02369961515069008,-0.01958908699452877,-0.12612450122833252
1791049003018115600,7.690115478515625,0.02616277150809765,-0.018695596605539322,-0.09038114547729492
1791049003028073500,7.700073486328125,0.02147108130156994,-0.015385286882519722,0.017419885843992233
1791049003038031600,7.710031494140625,0.01930166967213154,-0.0162726528942585,0.009001635015010834
1791049003047990500,7.719990478515625,0.018019624054431915,-0.01302892342209816,-0.05334775894880295
1791049003057948700,7.72994873046875,0.03166886046528816,-0.017924612388014793,-0.08580236881971359
1791049003067907600,7.739907470703125,0.03261934220790863,-0.010819030925631523,-0.03325100988149643
1791049003077865700,7.74986572265625,0.03575068712234497,-0.006636537611484528,0.07093530893325806
1791049003087823600,7.75982373046875,0.018800463527441025,-0.009673073887825012,-0.02225029468536377
1791049003097782500,7.769782470703125,0.03443588316440582,-0.014611639082431793,-0.07369750738143921
1791049003107740400,7.779740478515625,0.043943844735622406,-0.00810135155916214,-0.020346106961369514
1791049003117698300,7.7896982421875,0.035087503492832184,0.001523845363408327,0.01368136890232563
1791049003127657500,7.799657470703125,0.04611778259277344,-0.002670633140951395,0.00925359781831503
1791049003137615400,7.809615478515625,0.02385828271508217,0.004694072064012289,-0.013472754508256912
1791049003147573500,7.819573486328125,0.029497792944312096,0.004403521306812763,0.010836580768227577
1791049003157532400,7.829532470703125,0.03531306982040405,0.011591926217079163,0.016126682981848717
1791049003167490600,7.839490478515625,0.03459801524877548,0.011708572506904602,0.005910531617701054
1791049003177448400,7.849448486328125,0.03661029785871506,0.013751482591032982,-0.0005156761035323143
1791049003187407600,7.85940771484375,0.017458973452448845,0.020999807864427567,-0.0006962381303310394
1791049003197365500,7.869365478515625,0.024005822837352753,0.02012123167514801,0.01705426350235939
1791049003207324400,7.879324462890625,0.018058717250823975,0.025087494403123856,0.05804643779993057
1791049003217282600,7.889282470703125,0.0112301055341959,0.025464598089456558,0.02409779094159603
1791049003227240400,7.899240478515625,-0.00028407108038663864,0.021878117695450783,-0.04659102484583855
1791049003237199600,7.90919970703125,-0.01157853752374649,0.026725072413682938,0.01621829718351364
1791049003247157500,7.919157470703125,-0.009666919708251953,0.03503253683447838,0.10719294846057892
1791049003257115600,7.92911572265625,-0.005794684402644634,0.022992385551333427,0.004156040959060192
1791049003267074600,7.939074462890625,0.003796157892793417,0.020225627347826958,-0.07563678920269012
1791049003277032700,7.94903271484375,0.0028430125676095486,0.012076887302100658,-0.06805956363677979
1791049003286990600,7.958990478515625,0.006181817501783371,0.023809975013136864,0.03197169303894043
1791049003296949500,7.968949462890625,0.014618977904319763,0.02234390564262867,0.024046124890446663
1791049003306907600,7.97890771484375,0.013715101405978203,0.011218816041946411,-0.03540574759244919
1791049003316866600,7.988866455078125,0.01851971074938774,0.018164873123168945,-0.02543194591999054
1791049003326824700,7.99882470703125,0.02049044892191887,0.011536265723407269,-0.014609390869736671
1791049003336782600,8.008782470703125,-0.0012537281727418303,0.010652895085513592,-0.013917768374085426
1791049003346741800,8.01874169921875,0.017102908343076706,0.00628078356385231,-0.020706431940197945
1791049003356699600,8.02869970703125,0.004816148430109024,0.00041037751361727715,-0.07554411143064499
1791049003366657800,8.03865771484375,-0.002974662696942687,0.001926515018567443,-0.060425080358982086
1791049003376616700,8.04861669921875,0.013930018991231918,0.000050850678235292435,-0.030632032081484795
1791049003386574800,8.058574951171876,0.011924657970666885,0.003837066702544689,0.011702639982104301
1791049003396532500,8.068532470703126,0.009505175985395908,0.0008308906108140945,0.02024180069565773
1791049003406491600,8.07849169921875,0.007446818985044956,-0.0012919148430228233,-0.0618906170129776
1791049003416449500,8.088449462890624,0.008795177564024925,-0.002188334707170725,-0.037795670330524445
1791049003426407700,8.09840771484375,0.003456604667007923,-0.0008879136294126511,0.013657666742801666
1791049003436366600,8.10836669921875,0.007145082578063011,0.003807505825534463,0.01880688965320587
1791049003446324500,8.118324462890625,0.02168940380215645,-0.005062951240688562,-0.019398020580410957
1791049003456283600,8.12828369140625,0.009900389239192009,0.00149481650441885,-0.0047559612430632114
1791049003466241500,8.138241455078125,0.024807699024677277,-0.006605986971408129,-0.01556413434445858
1791049003476199700,8.14819970703125,0.024197835475206375,-0.0024336124770343304,0.017937101423740387
1791049003486158600,8.15815869140625,0.021063562482595444,0.0006913407705724239,0.0019219153327867389
1791049003496116700,8.16811669921875,0.03973311930894852,-0.002545731607824564,-0.02193388342857361
1791049003506074600,8.17807470703125,0.044541724026203156,-0.0031247022561728954,-0.02181750349700451
1791049003516033500,8.188033447265624,0.0454527884721756,-0.003804607782512903,-0.0028712418861687183
1791049003525991700,8.19799169921875,0.03813309222459793,0.0017416919581592083,0.03065076470375061
1791049003535949800,8.20794970703125,0.0448668971657753,-0.008433181792497635,-0.023477451875805855
1791049003545908700,8.21790869140625,0.050308264791965485,-0.006027281749993563,-0.03579483553767204
1791049003555866600,8.22786669921875,0.051569804549217224,-0.005566288251429796,-0.011813869699835777
1791049003565825800,8.23782568359375,0.05346331000328064,-0.003241348545998335,0.013211321085691452
1791049003575783700,8.24778369140625,0.04771807789802551,-0.0066099814139306545,0.026640577241778374
1791049003585741800,8.257741943359376,0.05279778689146042,-0.006176685448735952,-0.022618848830461502
1791049003595700700,8.26770068359375,0.05706869810819626,-0.005119676236063242,-0.04034591093659401
1791049003605658600,8.27765869140625,0.05557626485824585,-0.008865412324666977,-0.03223045915365219
1791049003615616500,8.287616455078124,0.04586824029684067,-0.00245971092954278,0.012347925454378128
1791049003625575400,8.297575439453125,0.03489335626363754,-0.0012026992626488209,0.01124297920614481
1791049003635533600,8.307533447265625,0.04214434325695038,-0.0062957280315458775,-0.013502847403287888
1791049003645491700,8.31749169921875,0.035260871052742004,-0.0009694062173366547,-0.0014933226630091667
1791049003655450600,8.32745068359375,0.03234764188528061,0.0005555199459195137,0.03352484852075577
1791049003665408500,8.337408447265625,0.01742834597826004,-0.0011917799711227417,0.011600375175476074
1791049003675366700,8.34736669921875,0.005616694688796997,-0.0031473389826714993,-0.022213781252503395
1791049003685325600,8.35732568359375,0.016850175336003304,-0.0039865016005933285,-0.02728843502700329
1791049003695283700,8.36728369140625,0.022273968905210495,-0.0042389691807329655,0.006018922198563814
1791049003705242600,8.37724267578125,0.006128820590674877,-0.0037633287720382214,0.015132525935769081
1791049003715200800,8.38720068359375,-0.0004622365813702345,-0.00447785435244441,-0.03228319063782692
1791049003725158700,8.39715869140625,0.0013572350144386292,-0.011464126408100128,-0.038087550550699234
1791049003735117600,8.40711767578125,-0.006324919406324625,0.0012689805589616299,0.03625112771987915
1791049003745075700,8.41707568359375,0.008267605677247047,-0.004423526581376791,0.02662832662463188
1791049003755033900,8.427033935546875,0.006230287253856659,-0.0074408878572285175,-0.026957137510180473
1791049003764992800,8.43699267578125,0.0023748287931084633,-0.012505954131484032,-0.0522553026676178
1791049003774950700,8.44695068359375,-0.001686491770669818,-0.0070845563896000385,0.0048809535801410675
1791049003784908500,8.456908447265626,-0.007419212255626917,-0.006026749033480883,0.035077206790447235
1791049003794867700,8.46686767578125,0.006548002362251282,-0.008557284250855446,-0.010897209867835045
1791049003804825600,8.47682568359375,0.016324199736118317,-0.011977583169937134,-0.031360138207674026
1791049003814784500,8.486784423828125,-0.0042939926497638226,-0.008834253996610641,-0.02548680640757084
1791049003824742700,8.49674267578125,-0.016781555488705635,-0.0034125898964703083,0.019124871119856834
1791049003834700500,8.506700439453125,0.0015377975068986416,-0.004881057422608137,0.031208697706460953
1791049003844659500,8.516659423828125,0.012272999621927738,-0.0063087777234613895,0.004739006981253624
1791049003854617600,8.52661767578125,0.00933180470019579,-0.013382667675614357,-0.05965463072061539
1791049003864575700,8.53657568359375,-0.004736876580864191,-0.009448379278182983,-0.0025367490015923977
1791049003874534700,8.54653466796875,-0.01374395377933979,-0.0024876748211681843,0.06516799330711365
1791049003884492500,8.556492431640624,0.0025604511611163616,-0.007346878293901682,0.044706929475069046
1791049003894450700,8.56645068359375,0.011116920970380306,-0.014938751235604286,-0.0626504197716713
1791049003904409600,8.57640966796875,-0.0032018304336816072,-0.012219130992889404,-0.01015125960111618
1791049003914367700,8.58636767578125,-0.02005777508020401,-0.0044070142321288586,0.05742805078625679
1791049003924326700,8.59632666015625,0.002944745123386383,-0.005999052431434393,0.051870834082365036
1791049003934284800,8.606284912109375,0.03192339837551117,-0.015073774382472038,-0.03639351576566696
1791049003944242700,8.61624267578125,0.021475287154316902,-0.010765312239527702,-0.030535893514752388
1791049003954201600,8.62620166015625,0.0023476644419133663,-0.01021510362625122,0.05659608170390129
1791049003964159700,8.63615966796875,0.014012044295668602,-0.008775131776928902,0.02673112414777279
1791049003974117600,8.64611767578125,0.02921922691166401,-0.0154466163367033,-0.016636056825518608
1791049003984076800,8.656076904296874,0.03711096942424774,-0.00869869813323021,-0.018292542546987534
1791049003994034400,8.666034423828124,0.026799743995070457,-0.010218031704425812,-0.003784439992159605
1791049004003992600,8.67599267578125,-0.003206890542060137,-0.010219896212220192,-0.008495837450027466
1791049004013951500,8.685951416015625,0.010961925610899925,-0.005281863268464804,-0.03693147376179695
1791049004023909600,8.69590966796875,0.02387133240699768,-0.00778576685115695,-0.032738324254751205
1791049004033868500,8.70586865234375,0.0235738568007946,-0.0031068590469658375,0.03479970619082451
1791049004043826700,8.71582666015625,0.02109658531844616,-0.009354900568723679,-0.012332389131188393
1791049004053784600,8.72578466796875,0.020276596769690514,-0.009346378967165947,-0.04172995686531067
1791049004063743500,8.735743408203126,0.015255739912390709,-0.011883573606610298,-0.06371408700942993
1791049004073701600,8.74570166015625,0.02297384664416313,-0.010517371818423271,-0.017216892912983894
1791049004083659800,8.75565966796875,0.020662756636738777,-0.008132243528962135,0.028939949348568916
1791049004093618700,8.76561865234375,0.02146117202937603,-0.007297875825315714,0.007692186627537012
1791049004103576600,8.77557666015625,0.029962247237563133,-0.013685468584299088,-0.06381182372570038
1791049004113534700,8.78553466796875,0.028302298858761787,-0.014352057129144669,-0.05441538989543915
1791049004123493600,8.79549365234375,0.03275470808148384,-0.010071761906147003,-0.002351726870983839
1791049004133451800,8.80545166015625,0.03358747810125351,-0.008073326200246811,0.02555074542760849
1791049004143409700,8.81540966796875,0.027717605233192444,-0.012562882155179977,-0.03660610318183899
1791049004153368800,8.825368896484376,0.032057758420705795,-0.014638816937804222,-0.05651376396417618
1791049004163326700,8.83532666015625,0.02709682285785675,-0.01456291601061821,-0.02781713753938675
1791049004173285600,8.84528564453125,0.03396351635456085,-0.00938653014600277,-0.0003823190927505493
1791049004183243800,8.855243896484374,0.02000109665095806,-0.011996427550911903,0.006008468568325043
1791049004193201700,8.86520166015625,0.01126539520919323,-0.007303139194846153,0.003954372368752956
1791049004203160800,8.875160888671875,0.01500340923666954,-0.005845325067639351,-0.028692785650491714
1791049004213118500,8.885118408203125,0.01704365573823452,-0.007358799688518047,-0.040014684200286865
1791049004223076600,8.89507666015625,0.006504461634904146,-0.004180583171546459,-0.03925328329205513
1791049004233035500,8.905035400390625,-0.010003408417105675,0.0014091255143284798,0.05600638687610626
1791049004242993700,8.91499365234375,-0.011016741394996643,0.0026011564768850803,0.015149768441915512
1791049004252951600,8.92495166015625,0.001822092104703188,-0.0037446236237883568,-0.07107380032539368
1791049004262910700,8.93491064453125,0.0046208081766963005,-0.004903631284832954,-0.0454493947327137
1791049004272869600,8.94486962890625,-0.00400224095210433,0.005436357576400042,0.008913444355130196
1791049004282828500,8.95482861328125,-0.010071851313114166,0.0014874222688376904,0.041694559156894684
1791049004292786700,8.96478662109375,-0.009178094565868378,-0.001345115713775158,-0.030492816120386124
1791049004302744600,8.97474462890625,0.023754023015499115,-0.0016108988784253597,-0.04917142912745476
1791049004312703500,8.984703369140625,0.01150774210691452,0.0012336233630776405,-0.028381463140249252
1791049004322661600,8.99466162109375,0.007133766543120146,0.00004026060923933983,0.010907353833317757
1791049004332619800,9.004619873046876,-0.0057404860854148865,0.0003656991757452488,0.04150361195206642
1791049004342578700,9.01457861328125,-0.010088630020618439,0.0019646610599011183,-0.014029154554009438
1791049004352536600,9.02453662109375,0.011598290875554085,-0.004727330058813095,-0.07128898054361343
1791049004362494700,9.03449462890625,0.004116937983781099,-0.0010961098596453667,-0.03420393168926239
1791049004372453600,9.04445361328125,-0.010370925068855286,-0.0009807953611016273,0.016087202355265617
1791049004382411800,9.054411865234375,-0.02935020811855793,0.0031345875468105078,0.012797132134437561
1791049004392370700,9.06437060546875,-0.029684433713555336,-0.00024363212287425995,-0.04400729387998581
1791049004402328800,9.074328857421875,-0.027646051719784737,0.0032882520463317633,-0.0369134321808815
1791049004412286700,9.08428662109375,-0.024276886135339737,0.0024695962201803923,0.022738447412848473
1791049004422245600,9.09424560546875,-0.03940337523818016,0.013237821869552135,0.054826609790325165
1791049004432203500,9.10420361328125,-0.03694208338856697,0.0012717065401375294,-0.01128476858139038
1791049004442161700,9.11416162109375,-0.018208608031272888,-0.002399994060397148,-0.07797537744045258
1791049004452120600,9.12412060546875,-0.022890444844961166,0.0017542713321745396,-0.0473594143986702
1791049004462078500,9.134078369140624,-0.03006286919116974,0.00784625206142664,0.00015990040265023708
1791049004472036600,9.14403662109375,-0.03372897952795029,0.0031329896301031113,0.03998294845223427
1791049004481995500,9.15399560546875,-0.037269916385412216,0.00730722863227129,0.012935882434248924
1791049004491953700,9.16395361328125,-0.022142095491290092,0.001387287862598896,-0.04646725580096245
1791049004501912600,9.17391259765625,-0.018295958638191223,-0.0033118603751063347,-0.037904925644397736
1791049004511870700,9.18387060546875,-0.038292836397886276,0.005098668858408928,0.015433128923177719
1791049004521828600,9.19382861328125,-0.017055725678801537,0.004849929828196764,0.07222717255353928
1791049004531787500,9.20378759765625,-0.0011236302088946104,-0.0033624600619077682,-0.03963225334882736
1791049004541745700,9.21374560546875,-0.0038826651871204376,-0.01084141619503498,-0.08285535871982574
1791049004551703800,9.223703857421874,-0.014220790937542915,-0.013881945982575417,-0.016370339319109917
1791049004561662700,9.233662841796875,-0.014289500191807747,-0.004883658140897751,0.05460183694958687
1791049004571620600,9.24362060546875,-0.008368760347366333,-0.009050173684954643,0.020933356136083603
1791049004581578800,9.253578857421875,0.004294571001082659,-0.011850221082568169,-0.025285005569458008
1791049004591537700,9.26353759765625,0.010713854804635048,-0.011358868330717087,-0.03588944673538208
1791049004601495800,9.273495849609375,-0.011165611445903778,-0.01005471684038639,-0.055410418659448624
1791049004611454700,9.283454833984376,-0.012992274016141891,-0.004631722345948219,0.01279180683195591
1791049004621412900,9.293412841796876,-0.013371774926781654,-0.003160325810313225,0.049652617424726486
1791049004631370500,9.30337060546875,-0.00907582975924015,-0.0018963897600769997,0.005657197441905737
1791049004641329400,9.313329345703124,-0.009718449786305428,-0.004824269562959671,-0.05743362009525299
1791049004651287600,9.32328759765625,-0.022105077281594276,-0.0033004088327288628,-0.03179323673248291
1791049004661245700,9.33324560546875,-0.02020757645368576,0.0018197849858552217,0.04298299923539162
1791049004671204600,9.34320458984375,-0.006136764772236347,0.0021912960801273584,0.018708018586039543
1791049004681161700,9.35316162109375,-0.006714670918881893,-0.00006812997162342072,-0.06673364341259003
1791049004691120600,9.36312060546875,-0.009739222005009651,-0.0019115698523819447,-0.0439031645655632
1791049004701078500,9.37307861328125,-0.01622242107987404,0.0026413702871650457,0.02603091299533844
1791049004711037700,9.38303759765625,0.0008167489431798458,-0.0013080975040793419,0.021529104560613632
1791049004720995600,9.39299560546875,0.009169487282633781,-0.0027552591636776924,-0.05561574548482895
1791049004730953700,9.40295361328125,0.013413501903414726,-0.005867429077625275,-0.02530764229595661
1791049004740912600,9.41291259765625,0.0016631013713777065,-0.0012596282176673412,0.008467631414532661
1791049004750870800,9.422870849609374,0.003236230928450823,-0.002123291604220867,-0.010176094248890877
1791049004760828700,9.43282861328125,0.020700177177786827,-0.005302838981151581,-0.032661959528923035
1791049004770787800,9.442787841796875,0.025504518300294876,-0.005351575091481209,-0.018821513280272484
1791049004780745700,9.452745849609375,0.012628134340047836,-0.0040620723739266396,0.0065810480155050755
1791049004790704600,9.46270458984375,-0.0057223765179514885,-0.0029315603896975517,-0.034588225185871124
1791049004800662800,9.472662841796875,0.007950026541948318,-0.005582471378147602,-0.007656210567802191
1791049004810620700,9.48262060546875,0.009604914113879204,0.0014911508187651634,0.011978210881352425
1791049004820579600,9.49257958984375,0.01578477956354618,-0.002385346218943596,-0.010053588077425957
1791049004830537500,9.502537353515624,0.008886126801371574,-0.003164054825901985,-0.03636295720934868
1791049004840495600,9.51249560546875,0.00034430413506925106,-0.007771589793264866,-0.036704108119010925
1791049004850454500,9.52245458984375,0.00910477340221405,-0.0009445762261748314,0.014766806736588478
1791049004860412700,9.53241259765625,0.018897483125329018,-0.009856577962636948,-0.04456416144967079
1791049004870370600,9.54237060546875,0.018105991184711456,-0.007473847828805447,-0.08857529610395432
1791049004880329700,9.552329833984375,0.00266125425696373,-0.0020151669159531593,-0.010523103177547455
1791049004890287600,9.56228759765625,-0.0033644139766693115,0.0017894250340759754,0.03270133212208748
1791049004900245800,9.572245849609375,0.0040729958564043045,-0.0017475192435085773,-0.010982498526573181
1791049004910204700,9.58220458984375,0.0073388307355344296,-0.008110609836876392,-0.10428208857774734
1791049004920162600,9.59216259765625,0.009840870276093483,-0.0062775565311312675,-0.007303608115762472
1791049004930121700,9.602121826171874,-0.00346055394038558,0.0017990123014897108,0.07270254194736481
1791049004940079600,9.61207958984375,0.009537003934383392,-0.007536166347563267,0.0016696464736014605
1791049004950037800,9.622037841796875,0.00795934721827507,-0.009921027347445488,-0.1344306617975235
1791049004959996700,9.63199658203125,0.012606030330061913,-0.005424546077847481,-0.06271360069513321
1791049004969954800,9.641954833984375,0.006904202047735453,0.001360389869660139,0.043625351041555405
1791049004979912700,9.65191259765625,-0.00026795663870871067,0.008868373930454254,0.07407407462596893
1791049004989871600,9.66187158203125,-0.00528188981115818,0.002017391612753272,-0.008525466546416283
1791049004999830800,9.671830810546876,-0.005239279009401798,0.001401402521878481,-0.05200716480612755
1791049005009788700,9.68178857421875,0.00625572307035327,0.002195024397224188,-0.0021930024959146976
1791049005019747800,9.691747802734374,-0.003911160863935947,0.008060370571911335,0.03060169704258442
1791049005029705700,9.701705810546875,-0.006105871871113777,0.002499423688277602,0.03721432387828827
1791049005039663600,9.71166357421875,-0.020216630771756172,0.007624943740665913,0.027563562616705894
1791049005049622500,9.72162255859375,-0.006433707196265459,0.003269077278673649,-0.02193448320031166
1791049005059580700,9.73158056640625,0.00371373537927866,0.005417449399828911,-0.030028894543647766
1791049005069539600,9.74153955078125,-0.005925842560827732,0.008075816556811333,0.031215820461511612
1791049005079497500,9.75149755859375,-0.017155060544610023,0.014033574610948563,0.1002417579293251
1791049005089455600,9.76145556640625,-0.0012985998764634132,0.018691176548600197,0.05058898776769638
1791049005099414500,9.77141455078125,0.010175364091992378,0.001070637721568346,-0.043496232479810715
1791049005109372700,9.78137255859375,0.010110648348927498,-0.00037412717938423157,-0.04557909071445465
1791049005119330600,9.79133056640625,-0.00676820008084178,0.00824146531522274,0.056091342121362686
1791049005129289700,9.801289794921875,-0.005105055868625641,0.005723979324102402,0.07775695621967316
1791049005139247600,9.81124755859375,-0.004460843279957771,0.00653781509026885,0.034645773470401764
1791049005149205800,9.821205810546875,0.000029246322810649872,0.0037188592832535505,-0.0084849176928401
1791049005159164700,9.83116455078125,-0.005510661285370588,0.007990836165845394,0.015412159264087677
1791049005169122800,9.841122802734375,-0.0204632468521595,0.008563149720430374,0.03950151428580284
1791049005179081700,9.851081787109376,-0.018009673804044724,0.008926138281822205,0.0289095938205719
1791049005189039600,9.86103955078125,-0.015329736284911633,0.005778015125542879,0.037549685686826706
1791049005198997800,9.870997802734376,-0.017742294818162918,0.012672406621277332,0.050714489072561264
1791049005208956700,9.880956787109374,-0.015989135950803757,0.0016924599185585976,0.00402581412345171
1791049005218914800,9.890914794921875,-0.009639892727136612,0.004915683995932341,-0.01592179387807846
1791049005228872400,9.90087255859375,-0.008734684437513351,0.006651532370597124,0.04363740608096123
1791049005238831900,9.910831787109375,-0.01894790679216385,0.011448417790234089,0.07826915383338928
1791049005248789500,9.92078955078125,-0.005679505877196789,0.004934858530759811,0.02252546325325966
1791049005258747600,9.93074755859375,-0.0034017041325569153,0.0013955174945294857,-0.04298537224531174
1791049005268706800,9.940706787109375,-0.002189433202147484,0.005123410373926163,0.011685065925121307
1791049005278664700,9.950664794921876,-0.012920107692480087,0.01377815194427967,0.09206060320138931
1791049005288623600,9.96062353515625,-0.0006839481648057699,0.01133043970912695,0.026615280658006668
1791049005298581500,9.97058154296875,0.008078117854893208,0.003923922777175903,-0.02952389046549797
1791049005308539600,9.98053955078125,0.005099638365209103,0.009521886706352234,-0.03024560585618019
1791049005318498600,9.99049853515625,-0.0015510733937844634,0.012369604781270027,0.01416393555700779
1791049005328456700,10.000456787109375,-0.0036272737197577953,0.013423951342701912,0.031236395239830017
1791049005338414600,10.01041455078125,-0.002124452032148838,0.011654812842607498,-0.020652368664741516
1791049005348373800,10.020373779296875,-0.0000621001236140728,0.015474317595362663,0.0230860598385334
1791049005358331600,10.03033154296875,-0.015503906644880772,0.018621642142534256,0.020174957811832428
1791049005368289800,10.040289794921875,-0.006499493028968573,0.012497703544795513,-0.03318653628230095
1791049005378248700,10.050248779296876,-0.005031292326748371,0.016624538227915764,-0.038688093423843384
1791049005388206800,10.060206787109376,-0.005041944794356823,0.01997532695531845,0.01007917895913124
1791049005398165800,10.070165771484374,-0.005890960805118084,0.01937771402299404,0.04481345787644386
1791049005408123600,10.08012353515625,-0.009106460958719254,0.012104354798793793,-0.043696433305740356
1791049005418081800,10.090081787109375,-0.005088816396892071,0.01317201554775238,-0.05854382365942001
1791049005428040700,10.100040771484375,-0.00395697308704257,0.016738520935177803,0.01602628454566002
1791049005437998800,10.109998779296875,0.00022445619106292725,0.01617845892906189,0.030516009777784348
1791049005447956700,10.119956787109375,0.011151405982673168,0.005867231171578169,-0.043752629309892654
1791049005457916000,10.129916015625,0.0009746686555445194,0.011365859769284725,-0.03964044153690338
1791049005467873500,10.13987353515625,-0.006848100572824478,0.009213226847350597,0.0003200257197022438
1791049005477831700,10.149831787109376,-0.006680055521428585,0.014392808079719543,0.020757656544446945
1791049005487790600,10.15979052734375,0.004256748128682375,0.001970760291442275,-0.038454003632068634
1791049005497748700,10.169748779296874,0.0026133116334676743,0.011117920279502869,-0.03759939596056938
1791049005507707600,10.179707763671875,0.002173091284930706,0.008027054369449615,-0.007179169915616512
1791049005517665500,10.18966552734375,-0.0028661424294114113,0.009377810172736645,-0.008933394216001034
1791049005527623700,10.199623779296875,0.0008705388754606247,0.007115454878658056,-0.01929815113544464
1791049005537582600,10.20958251953125,0.006221628747880459,0.01127344835549593,-0.026160582900047302
1791049005547540700,10.219540771484375,0.016640715301036835,0.008513348177075386,-0.007512863725423813
1791049005557498600,10.22949853515625,0.0016899937763810158,0.01269131526350975,0.015227070078253746
1791049005567457800,10.239457763671876,-0.00421290285885334,0.008584721013903618,-0.021011892706155777
1791049005577415700,10.249415771484376,0.010060841217637062,0.008779398165643215,-0.022439081221818924
1791049005587373800,10.259373779296874,0.01655043289065361,0.012123528867959976,-0.0030640531331300735
1791049005597332700,10.269332763671875,0.02425229549407959,0.014605594798922539,0.008674894459545612
1791049005607290600,10.27929052734375,0.032711561769247055,0.005214490462094545,-0.019571658223867416
1791049005617249800,10.289249755859375,0.017045248299837112,0.016870880499482155,-0.037012167274951935
1791049005627207700,10.299207763671875,0.021816834807395935,0.016515614464879036,0.05157548934221268
1791049005637165800,10.309165771484375,0.013500845991075039,0.023895500227808952,0.028155919164419174
1791049005647124700,10.319124755859375,0.03635023534297943,0.011028170585632324,-0.032324738800525665
1791049005657083000,10.329082763671876,0.031864408403635025,0.017538534477353096,-0.05525695160031319
1791049005667040500,10.33904052734375,0.024355892091989517,0.019624322652816772,0.010515671223402023
1791049005676999700,10.348999755859374,0.023576650768518448,0.02400096133351326,0.049334440380334854
1791049005686957600,10.35895751953125,0.037283409386873245,0.017239460721611977,-0.007935240864753723
1791049005696916500,10.36891650390625,0.04138574004173279,0.022966856136918068,-0.049343135207891464
1791049005706874600,10.37887451171875,0.03503383696079254,0.022632362321019173,-0.011373382061719894
1791049005716832500,10.38883251953125,0.022282354533672333,0.02701565995812416,0.013598013669252396
1791049005726791700,10.398791748046875,0.0337776243686676,0.02254580892622471,0.007194443605840206
1791049005736749600,10.40874951171875,0.04252850264310837,0.025968238711357117,-0.017557241022586823
1791049005746707700,10.418707763671875,0.04523720592260361,0.024256357923150063,-0.029507111757993698
1791049005756666600,10.42866650390625,0.038180895149707794,0.023363666608929634,-0.032740190625190735
1791049005766624800,10.438624755859376,0.03008222207427025,0.019620327278971672,-0.039954427629709244
1791049005776582700,10.448582763671874,0.03051471710205078,0.027409806847572327,-0.00013644015416502953
1791049005786541800,10.458541748046875,0.038235489279031754,0.027709679678082466,0.007403767667710781
1791049005796499700,10.468499755859375,0.05230070650577545,0.01865040510892868,-0.05862078815698624
1791049005806458600,10.478458740234375,0.037877827882766724,0.02597995661199093,-0.045679159462451935
1791049005816416800,10.488416748046875,0.02250153198838234,0.0249093659222126,-0.02813691645860672
1791049005826374700,10.498374755859375,0.034035149961709976,0.027597825974225998,-0.01783740520477295
1791049005836333800,10.508333740234375,0.04628356173634529,0.02308589778840542,-0.03656502068042755
1791049005846291700,10.518291748046876,0.03875293955206871,0.022950077429413795,-0.06748218834400177
1791049005856249600,10.52824951171875,0.019603747874498367,0.024889657273888588,-0.04734709486365318
1791049005866208800,10.538208740234374,0.017014887183904648,0.026563454419374466,-0.011201607994735241
1791049005876166700,10.548166748046874,0.034872714430093765,0.027448423206806183,-0.018374033272266388
1791049005886124500,10.55812451171875,0.03159622848033905,0.028469212353229523,-0.06756527721881866
1791049005896083700,10.568083740234375,0.02863825485110283,0.02898719720542431,-0.05543937906622887
1791049005906041600,10.57804150390625,0.019514262676239014,0.031421858817338943,-0.01687014475464821
1791049005916000500,10.58800048828125,0.017132066190242767,0.03255290538072586,-0.024427663534879684
1791049005925958700,10.597958740234375,0.028750907629728317,0.032279931008815765,-0.05298740416765213
1791049005935916500,10.60791650390625,0.029356244951486588,0.03171081468462944,-0.05779281258583069
1791049005945875700,10.617875732421876,0.01967005804181099,0.036663226783275604,-0.03608166053891182
1791049005955833600,10.62783349609375,0.01912996917963028,0.03357475996017456,-0.025287598371505737
1791049005965791700,10.637791748046874,0.02129724994301796,0.036490920931100845,-0.05647428333759308
1791049005975750700,10.647750732421875,0.026933565735816956,0.03602220490574837,-0.04470524191856384
1791049005985708800,10.657708740234375,0.017923027276992798,0.038952216506004333,-0.023667331784963608
1791049005995667700,10.667667724609375,0.020363811403512955,0.04055250808596611,-0.024688389152288437
1791049006005625600,10.67762548828125,0.01654883474111557,0.04280288144946098,-0.046636033803224564
1791049006015583700,10.687583740234375,0.011488029733300209,0.04213123023509979,-0.011327309533953667
1791049006025542700,10.697542724609375,0.001360294409096241,0.04555685445666313,-0.006482486613094807
1791049006035500800,10.707500732421876,0.0026191705837845802,0.04327985271811485,0.0012398813851177692
1791049006045458700,10.717458740234376,-0.0018099326407536864,0.04300421476364136,-0.04624374955892563
1791049006055417900,10.72741796875,0.004970475099980831,0.042632170021533966,-0.024549372494220734
1791049006065375700,10.737375732421874,-0.004363105166703463,0.045397598296403885,0.009931374341249466
1791049006075333600,10.747333740234374,-0.0029998330865055323,0.04506709799170494,-0.0043442342430353165
1791049006085292500,10.75729248046875,-0.006549294106662273,0.04403858631849289,-0.04430390149354935
1791049006095250700,10.767250732421875,-0.007242248393595219,0.050326041877269745,0.013634765520691872
1791049006105209600,10.777209716796875,0.00035681528970599174,0.047632522881031036,0.013877646066248417
1791049006115167700,10.787167724609375,0.004433049354702234,0.04638003930449486,-0.026660460978746414
1791049006125125600,10.797125732421875,-0.0067969681695103645,0.04224175214767456,-0.048687729984521866
1791049006135084500,10.80708447265625,-0.021144747734069824,0.04651612415909767,0.005289217922836542
1791049006145042700,10.817042724609376,-0.011856974102556705,0.04977396875619888,0.02481764554977417
1791049006155000600,10.82700048828125,0.005634165834635496,0.04924776405096054,-0.00637397775426507
1791049006164959700,10.836959716796875,0.00988536886870861,0.044470854103565216,-0.03543012961745262
1791049006174917600,10.846917724609375,-0.010710719041526318,0.05105232447385788,-0.00979294441640377
1791049006184875800,10.856875732421875,-0.007944494485855103,0.05044592171907425,0.02498367801308632
1791049006194834700,10.866834716796875,-0.005314622074365616,0.05524600297212601,0.01452704332768917
1791049006204792800,10.876792724609375,-0.00442406116053462,0.05463853478431702,-0.005930029321461916
1791049006214751700,10.886751708984375,0.003983005881309509,0.05169840529561043,0.006135954521596432
1791049006224709600,10.896709716796876,-0.005273609422147274,0.05568675696849823,0.015686849132180214
1791049006234667800,10.906667724609376,-0.01105506531894207,0.052645690739154816,0.013029014691710472
1791049006244626700,10.916626708984374,0.0075665549375116825,0.05226326361298561,0.0021318921353667974
1791049006254584800,10.926584716796874,0.015770157799124718,0.054982349276542664,0.024526946246623993
1791049006264542500,10.93654248046875,0.020070362836122513,0.052403878420591354,0.0034823811147361994
1791049006274501600,10.946501708984375,0.007595849689096212,0.047644540667533875,-0.02237478271126747
1791049006284459500,10.95645947265625,0.005185422953218222,0.052902951836586,0.010157328099012375
1791049006294417700,10.966417724609375,0.007507699076086283,0.05166245251893997,0.031813088804483414
1791049006304376600,10.97637646484375,0.022434450685977936,0.05123261734843254,0.03756445273756981
1791049006314334700,10.986334716796875,0.026880865916609764,0.047341473400592804,-0.02442088909447193
1791049006324293600,10.996293701171876,0.018879396840929985,0.049815285950899124,0.002068242523819208
1791049006334251500,11.00625146484375,0.0083234254270792,0.04709619656205177,0.01729380153119564
1791049006344209700,11.016209716796874,0.010978065431118011,0.047641344368457794,0.0070922961458563805
1791049006354168600,11.02616845703125,0.015255900099873543,0.04833430051803589,-0.02356601320207119
1791049006364126700,11.036126708984375,0.029431108385324478,0.045435450971126556,0.006921054795384407
1791049006374084600,11.046084716796875,0.022721273824572563,0.048106599599123,0.025575699284672737
1791049006384043800,11.056043701171875,0.024666180834174156,0.04246389493346214,-0.03529936820268631
1791049006394001700,11.066001708984375,0.025079770013689995,0.044699084013700485,-0.04679809883236885
1791049006403960800,11.0759609375,0.041571926325559616,0.044761668890714645,0.012125404551625252
1791049006413918700,11.085918701171876,0.034939590841531754,0.03999647498130798,0.01193898357450962
1791049006423876900,11.095876953125,0.028442807495594025,0.040061190724372864,-0.018889237195253372
1791049006433835800,11.105835693359374,0.030246835201978683,0.035019028931856155,-0.03920942172408104
1791049006443793400,11.11579345703125,0.034040775150060654,0.040314722806215286,0.031394973397254944
1791049006453751600,11.12575146484375,0.04067976772785187,0.036272045224905014,0.004584929905831814
1791049006463710500,11.13571044921875,0.045900627970695496,0.03366827219724655,-0.02164481021463871
1791049006473668600,11.145668701171875,0.04050053656101227,0.030881542712450027,0.0019515961175784469
1791049006483626500,11.15562646484375,0.02955707535147667,0.033282648772001266,0.023595638573169708
1791049006493585700,11.165585693359375,0.045353613793849945,0.030706040561199188,0.0008818043861538172
1791049006503543600,11.17554345703125,0.05316546559333801,0.028834104537963867,-0.0418158583343029
1791049006513502700,11.185502685546876,0.04335597902536392,0.03190552815794945,0.04982218146324158
1791049006523460600,11.195460693359376,0.0264385137706995,0.035203587263822556,0.05008690059185028
1791049006533418800,11.205418701171874,0.03702963888645172,0.026276137679815292,-0.018670324236154556
1791049006543377700,11.215377685546875,0.03595159202814102,0.02740984410047531,-0.0345747210085392
1791049006553335600,11.22533544921875,0.0383596234023571,0.03070896863937378,0.04435471445322037
1791049006563293700,11.235293701171875,0.02660203166306019,0.03469332307577133,0.08597486466169357
1791049006573252600,11.245252685546875,0.029458004981279373,0.027600262314081192,0.019009409472346306
1791049006583210800,11.255210693359375,0.03390788286924362,0.028281230479478836,-0.051515355706214905
1791049006593168600,11.265168701171875,0.03938094526529312,0.02854381874203682,0.0014027187135070562
1791049006603127800,11.2751279296875,0.025097878649830818,0.037233445793390274,0.10327502340078354
1791049006613085700,11.285085693359376,0.031277477741241455,0.03745129331946373,0.09477714449167252
1791049006623044600,11.295044677734374,0.035112164914608,0.03362273424863815,0.0027577350847423077
1791049006633002800,11.305002685546874,0.03321492671966553,0.033946841955184937,-0.01959231123328209
1791049006642960600,11.314960693359374,0.030141904950141907,0.03852720931172371,0.036514632403850555
1791049006652919600,11.32491943359375,0.02270635962486267,0.04581042379140854,0.09790848940610886
1791049006662877400,11.33487744140625,0.030606359243392944,0.0407584048807621,0.047051165252923965
1791049006672835600,11.344835693359375,0.032064441591501236,0.041456155478954315,0.00971178151667118
1791049006682794500,11.35479443359375,0.04070347175002098,0.044829048216342926,0.02324250340461731
1791049006692752600,11.364752685546875,0.034581396728754044,0.04844561964273453,0.05490349605679512
1791049006702711600,11.374711669921876,0.02107464149594307,0.05219588428735733,0.07018018513917923
1791049006712669700,11.384669677734376,0.022497568279504776,0.0498640201985836,0.03823583573102951
1791049006722627600,11.394627685546874,0.02366749569773674,0.050484005361795425,0.025436416268348694
1791049006732586500,11.40458642578125,0.030934464186429977,0.051564447581768036,0.022482438012957573
1791049006742544600,11.414544677734375,0.026267806068062782,0.049036841839551926,0.03022238239645958
1791049006752502800,11.424502685546875,0.01933799311518669,0.05417541041970253,0.045601870864629745
1791049006762461700,11.434461669921875,0.018340906128287315,0.052649155259132385,0.014133960008621216
1791049006772419600,11.444419677734375,0.022493040189146996,0.05042647942900658,-0.024498386308550835
1791049006782377700,11.454377685546875,0.017387760803103447,0.05242198705673218,0.02000090479850769
1791049006792336600,11.464336669921876,0.0059414939023554325,0.0566558800637722,0.05204565450549126
1791049006802294800,11.474294677734376,0.00730849476531148,0.054562367498874664,0.01842564344406128
1791049006812253700,11.484253662109374,0.0020117340609431267,0.051027555018663406,-0.04645029082894325
1791049006822211800,11.4942119140625,0.005456000100821257,0.051028355956077576,-0.011690180748701096
1791049006832169500,11.50416943359375,0.0009424746967852116,0.0552595853805542,0.0010839381720870733
1791049006842128600,11.514128662109375,-0.00003437278792262077,0.05037747696042061,-0.020455975085496902
1791049006852086500,11.52408642578125,-0.019562533125281334,0.049149759113788605,-0.050801631063222885
1791049006862044700,11.534044677734375,-0.018598202615976334,0.054818034172058105,-0.007622734177857637
1791049006872003600,11.544003662109375,-0.018171565607190132,0.052399083971977234,0.003201151266694069
1791049006881961500,11.55396142578125,-0.018169434741139412,0.05301347374916077,-0.02971498668193817
1791049006891919600,11.563919677734376,-0.0173057708889246,0.049806494265794754,-0.03881048038601875
1791049006901878500,11.57387841796875,-0.026371171697974205,0.05124380439519882,-0.023554028943181038
1791049006911836700,11.583836669921874,-0.019393956288695335,0.05028107017278671,-0.027073929086327553
1791049006921795600,11.593795654296875,-0.01243937760591507,0.0470634400844574,-0.05222109332680702
1791049006931753700,11.603753662109375,-0.018848273903131485,0.04628899320960045,-0.048874299973249435
1791049006941711600,11.613711669921875,-0.02507953718304634,0.050058431923389435,0.009996207430958748
1791049006951670500,11.62367041015625,-0.019734574481844902,0.04509776085615158,-0.006566790398210287
1791049006961628700,11.633628662109375,-0.012616744264960289,0.043252989649772644,-0.037860795855522156
1791049006971586800,11.6435869140625,-0.009586865082383156,0.04273766651749611,-0.03447645157575607
1791049006981545700,11.653545654296876,-0.0041036829352378845,0.041988521814346313,0.005684548988938332
1791049006991503600,11.663503662109376,-0.0009020306169986725,0.04203272983431816,0.012819956988096237
1791049007001462800,11.673462890625,0.0007267587352544069,0.041086506098508835,-0.0191667377948761
1791049007011420700,11.683420654296874,-0.0025175041519105434,0.04032058268785477,-0.04361269250512123
1791049007021378800,11.69337890625,-0.0026256286073476076,0.04115841165184975,-0.0035496954806149006
1791049007031337700,11.703337646484375,0.00023407372646033764,0.04248599708080292,0.04965547099709511
1791049007041295600,11.713295654296875,0.011188987642526627,0.03926277533173561,-0.00432653957977891
1791049007051253500,11.72325341796875,0.004350788425654173,0.0372006893157959,-0.03711165115237236
1791049007061212400,11.73321240234375,0.028621774166822433,0.03082561492919922,-0.04963090270757675
1791049007071170600,11.743170654296875,0.03864457830786705,0.03199021518230438,-0.008179601281881332
1791049007081128700,11.753128662109376,0.05460197478532791,0.02880188077688217,0.04448254406452179
1791049007091087600,11.763087646484376,0.051724694669246674,0.0229535773396492,0.022599350661039352
1791049007101045500,11.77304541015625,0.05507149174809456,0.019250452518463135,-0.024873359128832817
1791049007111004700,11.783004638671875,0.07836988568305969,0.01855483464896679,0.023773271590471268
1791049007120962600,11.792962646484375,0.08603046834468842,0.02397223562002182,0.035861626267433167
1791049007130920700,11.802920654296875,0.08384374529123306,0.0228358656167984,0.0886707752943039
1791049007140879600,11.812879638671875,0.07098840177059174,0.023418031632900238,0.07727937400341034
1791049007150837800,11.822837646484375,0.071642205119133,0.023830823600292206,0.057876646518707275
