time,seconds_elapsed,z,y,x
1791048995366378800,0.038378662109375,0.001264202524907887,-0.0049561429768800735,-0.0023787354584783316
1791048995376336600,0.048336669921875,0.007848069071769714,-0.0062946476973593235,-0.01540532149374485
1791048995386295800,0.0582958984375,0.0027047062758356333,-0.002558498876169324,-0.02250956930220127
1791048995396253700,0.068253662109375,0.0006948187365196645,-0.004700212739408016,0.004524444229900837
1791048995406211600,0.078211669921875,-0.0008671252289786935,-0.003260508179664612,0.022232601419091225
1791048995416170500,0.08817041015625,0.010508567094802856,-0.007762582041323185,-0.020607540383934975
1791048995426128600,0.098128662109375,0.013309946283698082,-0.008134093135595322,-0.03105485439300537
1791048995436086500,0.10808642578125,0.003168629016727209,-0.005351355765014887,0.0028069717809557915
1791048995446044700,0.118044677734375,-0.006192115601152182,-0.002843989757820964,0.041559427976608276
1791048995456003600,0.128003662109375,0.009310411289334297,-0.008205732330679893,-0.0258137546479702
1791048995465961700,0.137961669921875,0.01570945419371128,-0.007567904889583588,-0.05011802911758423
1791048995475919600,0.147919677734375,0.010464625433087349,-0.007979895919561386,0.017437312752008438
1791048995485878800,0.157878662109375,-0.00564004248008132,-0.003418433479964733,0.03407514467835426
1791048995495836700,0.167836669921875,0.0044115264900028706,-0.009384180419147015,-0.027757061645388603
1791048995505794800,0.177794921875,0.011315238662064075,-0.010730142705142498,-0.05173590034246445
1791048995515752700,0.187752685546875,0.008451808243989944,-0.003620034782215953,0.03285941109061241
1791048995525712000,0.1977119140625,-0.0018040252616629004,-0.007243531756103039,0.030113959684967995
1791048995535669800,0.207669677734375,-0.00032890037982724607,-0.010242250747978687,-0.04802398383617401
1791048995545627600,0.217627685546875,0.0036610474344342947,-0.008293083868920803,-0.04063264653086662
1791048995555586600,0.227586669921875,0.0031760858837515116,-0.0037955371662974358,0.032832514494657516
1791048995565544700,0.237544677734375,0.005959089379757643,-0.011710984632372856,0.011708587408065796
1791048995575502600,0.247502685546875,0.00401578051969409,-0.00529676117002964,-0.035462386906147
1791048995585460700,0.257460693359375,0.0009944243356585503,-0.008087754249572754,-0.0007099987124092877
1791048995595419600,0.267419677734375,-0.009048622101545334,-0.0036852823104709387,0.05373619869351387
1791048995605377800,0.277377685546875,0.0012024171883240342,-0.007115167565643787,0.016510799527168274
1791048995615335700,0.287335693359375,0.007072024047374725,-0.007274956908077002,-0.03966964781284332
1791048995625294600,0.297294677734375,0.0013555489713326097,-0.006420348770916462,-0.007778827100992203
1791048995635252700,0.307252685546875,0.002031725598499179,0.0006042712484486401,0.05420065298676491
1791048995645210600,0.317210693359375,0.007427822332829237,-0.005489573813974857,0.009543703868985176
1791048995655168800,0.327168701171875,0.01227397657930851,-0.005204082932323217,-0.028969865292310715
1791048995665127700,0.337127685546875,0.0008258462767116725,-0.005408081226050854,0.023788420483469963
1791048995675085800,0.3470859375,-0.011167965829372406,-0.0006330333999358118,0.06661710888147354
1791048995685043500,0.35704345703125,0.006427805405110121,-0.0041212416253983974,0.021283451467752457
1791048995695003000,0.3670029296875,0.016336629167199135,-0.006599579472094774,-0.04766392707824707
1791048995704960500,0.37696044921875,0.006967095658183098,-0.006147374864667654,0.015856195241212845
1791048995714918700,0.386918701171875,-0.011269166134297848,-0.0018168084789067507,0.08177395910024643
1791048995724876500,0.39687646484375,0.003096990054473281,-0.005856823641806841,0.014219682663679123
1791048995734835700,0.406835693359375,0.002983273006975651,-0.005406749434769154,-0.05200221389532089
1791048995744793600,0.416793701171875,0.010742658749222755,-0.0029020465444773436,0.016560068354010582
1791048995754751700,0.426751708984375,0.0043992758728563786,-0.00270710326731205,0.07294265180826187
1791048995764710700,0.436710693359375,-0.00041758365114219487,-0.0007321029552258551,0.017560617998242378
1791048995774668800,0.446668701171875,0.007815312594175339,-0.006324741058051586,-0.0395338274538517
1791048995784626700,0.456626708984375,0.005046956706792116,-0.004508731886744499,0.01804398186504841
1791048995794584800,0.466584716796875,0.005399292800575495,-0.002594451420009136,0.050936948508024216
1791048995804543700,0.476543701171875,-0.0013976269401609898,-0.005702094174921513,-0.002525209216400981
1791048995814502000,0.486501953125,-0.006837932392954826,-0.009737315587699413,-0.028841501101851463
1791048995824459800,0.496459716796875,0.0012130698887631297,-0.004132426809519529,0.024930916726589203
1791048995834418700,0.506418701171875,0.0033153691329061985,-0.005083708092570305,0.025541845709085464
1791048995844376800,0.516376953125,0.00971414614468813,-0.008057660423219204,-0.03692259639501572
1791048995854334700,0.526334716796875,0.000045273736759554595,-0.005661347880959511,0.0015733955660834908
1791048995864292600,0.536292724609375,-0.013992248103022575,-0.004461327567696571,0.031028224155306816
1791048995874251500,0.54625146484375,-0.0008380967774428427,-0.011064901947975159,-0.003308977698907256
1791048995884209700,0.556209716796875,0.005906891077756882,-0.004552940372377634,-0.04819522425532341
1791048995894167600,0.56616748046875,0.006237389519810677,-0.006392918061465025,0.006957241799682379
1791048995904126700,0.576126708984375,-0.0041121868416666985,-0.0020652813836932182,0.04892173781991005
1791048995914084600,0.586084716796875,-0.0006799050024710596,-0.009133577346801758,-0.027036145329475403
1791048995924042800,0.596042724609375,0.006232596002519131,-0.008450210094451904,-0.06251157820224762
1791048995934001700,0.606001708984375,0.002260491019114852,-0.004504470620304346,0.013511281460523605
1791048995943959800,0.615959716796875,0.0009683253592811525,-0.0028541097417473793,0.04203986003994942
1791048995953917700,0.625917724609375,0.0015595471486449242,-0.006243781186640263,-0.02413329854607582
1791048995963875800,0.635875732421875,0.0029611687641590834,-0.00782649777829647,-0.05535673350095749
1791048995973834800,0.645834716796875,0.0012186624808236957,-0.003552923211827874,0.0142918536439538
1791048995983793000,0.65579296875,0.004093811381608248,-0.00293320557102561,0.04495309293270111
1791048995993750500,0.66575048828125,0.004596083424985409,-0.003569967346265912,-0.032941970974206924
1791048996003709700,0.675709716796875,0.0037502634804695845,-0.010175938718020916,-0.04617468640208244
1791048996013667600,0.68566748046875,-0.008614793419837952,-0.0005984122981317341,0.020538564771413803
1791048996023625700,0.695625732421875,0.003686613868921995,-0.005460012704133987,0.040175650268793106
1791048996033584600,0.705584716796875,0.002014681464061141,-0.0057404437102377415,-0.052557218819856644
1791048996043542500,0.71554248046875,-0.001609348226338625,-0.0065322015434503555,-0.029994649812579155
1791048996053500700,0.725500732421875,-0.011460913345217705,-0.002272208919748664,0.035059452056884766
1791048996063458600,0.73545849609375,-0.007158843334764242,-0.0017915084026753902,0.034640002995729446
1791048996073417700,0.745417724609375,0.0054626758210361,-0.009225189685821533,-0.06317684054374695
1791048996083375600,0.755375732421875,-0.0038842204958200455,-0.0041670482605695724,-0.021009411662817
1791048996093333800,0.765333740234375,-0.010647051967680454,-0.00210629403591156,0.05624382942914963
1791048996103292700,0.775292724609375,-0.005363340023905039,-0.0023939155507832766,0.00472657848149538
1791048996113250800,0.785250732421875,-0.0010351707460358739,-0.01005316711962223,-0.053884804248809814
1791048996123208700,0.795208740234375,-0.0020474381744861603,-0.0035872780717909336,0.007000118959695101
1791048996133167600,0.805167724609375,-0.0036037894897162914,-0.003206712193787098,0.03615187853574753
1791048996143125800,0.815125732421875,-0.001614940818399191,-0.0038093857001513243,-0.01047208160161972
1791048996153084000,0.825083984375,0.0012253203894942999,-0.0088803106918931,-0.04345186799764633
1791048996163041500,0.83504150390625,-0.004175836686044931,-0.0018351842882111669,0.022005699574947357
1791048996173000400,0.84500048828125,0.0016532903537154198,-0.006274141371250153,0.02907373011112213
1791048996182958600,0.85495849609375,0.0010394317796453834,-0.0032647692132741213,-0.03349724039435387
1791048996192916700,0.864916748046875,0.0002335592289455235,-0.009316270239651203,-0.021494107320904732
1791048996202875600,0.874875732421875,-0.0073204971849918365,-0.003620567498728633,0.024821726605296135
1791048996212833500,0.88483349609375,0.0030509172938764095,-0.007032343186438084,0.008538627065718174
1791048996222791700,0.894791748046875,0.0010080065112560987,-0.0062853265553712845,-0.03945952653884888
1791048996232750600,0.90475048828125,-0.0026642263401299715,-0.005088502075523138,0.009785785339772701
1791048996242708700,0.914708740234375,-0.005260808393359184,-0.005426723510026932,0.01756913959980011
1791048996252666600,0.92466650390625,0.001838646363466978,-0.00504083139821887,-0.004169445019215345
1791048996262625300,0.934625244140625,0.007879494689404964,-0.009660616517066956,-0.038608912378549576
1791048996272584200,0.944584228515625,-0.0007874967413954437,-0.003466104157269001,0.019454125314950943
1791048996282542300,0.954542236328125,-0.001998968655243516,-0.0075814868323504925,0.028777319937944412
1791048996292500200,0.964500244140625,-0.0016338493442162871,-0.00780572509393096,-0.031738221645355225
1791048996302459100,0.974459228515625,0.003088201628997922,-0.007469367701560259,-0.02544863522052765
1791048996312417300,0.984417236328125,-0.0010484865633770823,-0.003923634998500347,0.022273879498243332
1791048996322375400,0.99437548828125,0.0025904567446559668,-0.0052261874079704285,0.025357553735375404
1791048996332334300,1.004334228515625,0.005100752227008343,-0.006208893842995167,-0.021804630756378174
1791048996342292200,1.014292236328125,-0.007613711059093475,-0.008702411316335201,-0.040231041610240936
1791048996352250400,1.02425048828125,-0.0002942793071269989,-0.005368399899452925,0.030593328177928925
1791048996362209300,1.034209228515625,-0.007215568795800209,-0.003079146845266223,0.026156768202781677
1791048996372167400,1.04416748046875,0.0016847157385200262,-0.009052084758877754,-0.023814784362912178
1791048996382125300,1.054125244140625,-0.0015723302494734526,-0.006078132428228855,-0.02792510762810707
1791048996392083200,1.064083251953125,-0.0026205505710095167,-0.0030455910600721836,0.022125275805592537
1791048996402042000,1.0740419921875,0.004245078656822443,-0.0039278962649405,0.02580389939248562
1791048996412000300,1.084000244140625,-0.002907106652855873,-0.004837099462747574,-0.0279216468334198
1791048996421958100,1.093958251953125,0.0046903593465685844,-0.007336742244660854,-0.005515672732144594
1791048996431917300,1.103917236328125,-0.0010005496442317963,-0.0002031991898547858,0.01996598392724991
1791048996441875200,1.113875244140625,-0.003621100215241313,-0.0044016726315021515,-0.007081345189362764
1791048996451833300,1.123833251953125,0.010260360315442085,-0.003631486324593425,0.009209210984408855
1791048996461792300,1.133792236328125,0.000978978001512587,-0.006266151554882526,-0.010867827571928501
1791048996471750100,1.143750244140625,0.003294330323114991,-0.007759119849652052,-0.0028493159916251898
1791048996481708300,1.153708251953125,0.0013422331539914012,-0.003043194068595767,0.02569178119301796
1791048996491667200,1.163667236328125,-0.0018964370246976614,-0.008196677081286907,-0.012508068233728409
1791048996501625300,1.173625244140625,0.0043867588974535465,-0.00800120085477829,-0.021770808845758438
1791048996511583200,1.183583251953125,-0.0034439999144524336,-0.00606508320197463,0.027301661670207977
1791048996521541400,1.193541259765625,-0.0028613002505153418,-0.006481601390987635,0.00112465291749686
1791048996531500300,1.203500244140625,0.0021965752821415663,-0.009023589082062244,-0.02383209578692913
1791048996541458400,1.21345849609375,-0.0009976201690733433,-0.0046269758604466915,0.01435497123748064
1791048996551416000,1.223416015625,0.0002918824611697346,-0.0019473034190014005,-0.00014221279707271606
1791048996561375500,1.23337548828125,0.003516437951475382,-0.006278668530285358,-0.00011531487689353526
1791048996571333000,1.2433330078125,0.004536961205303669,-0.006375873927026987,-0.002368615474551916
1791048996581291300,1.253291259765625,-0.00714632635936141,-0.003689809702336788,0.007707720622420311
1791048996591250200,1.263250244140625,-0.0016109461430460215,-0.007228884380310774,0.011513643898069859
1791048996601208300,1.273208251953125,0.0005046690348535776,-0.009739979170262814,-0.02791392244398594
1791048996611166200,1.283166259765625,-0.0009624664089642465,-0.0036248285323381424,0.008841960690915585
1791048996621125000,1.293125,-0.003727626521140337,-0.004746019374579191,0.026978621259331703
1791048996631083300,1.303083251953125,-0.009251289069652557,-0.007135407533496618,-0.032049279659986496
1791048996641041200,1.313041259765625,-0.0014090784825384617,-0.005254949443042278,0.015793610364198685
1791048996651000300,1.323000244140625,0.005434180144220591,-0.007144995033740997,-0.007066697813570499
1791048996660958200,1.332958251953125,-0.0010953581659123302,-0.003932423423975706,0.0018152105621993542
1791048996670916400,1.342916259765625,-0.0020788635592907667,-0.004693022463470697,0.007694671396166086
1791048996680874200,1.352874267578125,-0.004464523401111364,-0.00615163566544652,-0.014217551797628403
1791048996690833400,1.36283349609375,0.00449807895347476,-0.004002731293439865,0.015909990295767784
1791048996700791300,1.372791259765625,-0.0023457121569663286,-0.0073234266601502895,-0.014542191289365292
1791048996710749400,1.38274951171875,-0.006872020661830902,-0.004962267819792032,-0.018742261454463005
1791048996720708400,1.392708251953125,-0.002038117265328765,-0.001570998691022396,0.034509774297475815
1791048996730666200,1.402666259765625,0.00392869533970952,-0.006055495701730251,-0.016700150445103645
1791048996740624100,1.4126240234375,0.007525826804339886,-0.002412823960185051,0.00004261057620169595
1791048996750583300,1.422583251953125,-0.003940413240343332,-0.005358013790100813,0.00027803401462733746
1791048996760542200,1.432542236328125,-0.011008176021277905,-0.0005198490689508617,-0.000806138850748539
1791048996770501400,1.44250146484375,-0.0004170510219410062,-0.004776645917445421,0.02304060384631157
1791048996780459300,1.452459228515625,0.007933024317026138,-0.005759884603321552,-0.03093900717794895
1791048996790417200,1.462417236328125,0.008697085082530975,-0.0012815131340175867,0.02305791527032852
1791048996800376000,1.4723759765625,-0.0031164311803877354,-0.0025068335235118866,0.011744007468223572
1791048996810334200,1.482334228515625,-0.011108843609690666,-0.0030988543294370174,-0.017137441784143448
1791048996820292400,1.492292236328125,-0.002498843939974904,-0.003698864486068487,0.02695012465119362
1791048996830251300,1.502251220703125,0.006132727488875389,-0.009216135367751122,-0.022885873913764954
1791048996840209200,1.512209228515625,0.003905525663867593,-0.003769438248127699,0.01702212728559971
1791048996850167300,1.522167236328125,-0.0030477214604616165,-0.00817830115556717,-0.009196161292493343
1791048996860126200,1.532126220703125,-0.01575526036322117,-0.007043794728815556,-0.015030615031719208
1791048996870084400,1.54208447265625,-0.003952663857489824,-0.0013081447687000036,0.05425844341516495
1791048996880042200,1.552042236328125,-0.002263953210785985,-0.009186307899653912,-0.0422917976975441
1791048996890001400,1.56200146484375,0.004058923572301865,-0.004261057823896408,0.03219015896320343
1791048996899959300,1.571959228515625,0.0006317017832770944,-0.009008941240608692,-0.01703597418963909
1791048996909917400,1.58191748046875,-0.011593272909522057,-0.008594552986323833,0.008610266260802746
1791048996919875300,1.591875244140625,-0.007817708887159824,-0.005221926141530275,0.033899642527103424
1791048996929834200,1.601834228515625,-0.0033872744534164667,-0.009179117158055305,-0.03918575122952461
1791048996939792100,1.611792236328125,0.0016098808264359832,-0.0065324679017066956,0.037934865802526474
1791048996949750300,1.621750244140625,0.0026783409994095564,-0.006700247060507536,-0.021703697741031647
1791048996959709200,1.631709228515625,-0.002180329989641905,-0.008921323344111443,0.012896889820694923
1791048996969667000,1.6416669921875,-0.0054610781371593475,-0.010155431926250458,0.009210809133946896
1791048996979625200,1.651625244140625,-0.008071508258581161,-0.008550877682864666,-0.014122476801276207
1791048996989584100,1.661584228515625,-0.0041156490333378315,-0.0041215079836547375,0.03515372797846794
1791048996999542300,1.671542236328125,-0.0009052084642462432,-0.011184743605554104,-0.04566522315144539
1791048997009500200,1.681500244140625,0.0075910743325948715,-0.00449914438650012,0.03928855061531067
1791048997019459300,1.691459228515625,0.004644286818802357,-0.008732771500945091,-0.014928615652024746
1791048997029417200,1.701417236328125,0.0030298782512545586,-0.005602492019534111,0.012309929355978966
1791048997039375400,1.711375244140625,-0.002657302189618349,-0.008679508231580257,-0.006531136110424995
1791048997049334300,1.721334228515625,-0.005249623209238052,-0.005751362536102533,-0.0046757119707763195
1791048997059292400,1.73129248046875,0.0027300063520669937,-0.0048948898911476135,0.03436889126896858
1791048997069250300,1.741250244140625,0.00535481795668602,-0.007991880178451538,-0.034867435693740845
1791048997079209200,1.751209228515625,0.012402074411511421,-0.004169178660959005,0.03436010330915451
1791048997089167400,1.76116748046875,0.005562810692936182,-0.007275489624589682,-0.03785550221800804
1791048997099125500,1.77112548828125,0.0033241575583815575,-0.005242698825895786,0.02900581806898117
1791048997109084400,1.78108447265625,0.0049529471434652805,-0.007592938374727964,-0.008440889418125153
1791048997119042000,1.7910419921875,0.004279433749616146,-0.004905276466161013,0.0012420982820913196
1791048997129000200,1.801000244140625,0.007314638234674931,-0.007733553647994995,0.010897921398282051
1791048997138959000,1.810958984375,0.0009390306076966226,-0.010732272639870644,-0.03513748198747635
1791048997148917200,1.820917236328125,0.007780957501381636,-0.00589757040143013,0.025413481518626213
1791048997158875100,1.830875244140625,0.004462925251573324,-0.00842783972620964,-0.030059898272156715
1791048997168834300,1.840834228515625,0.011439608410000801,-0.007207046262919903,0.026280872523784637
1791048997178792200,1.850792236328125,0.00600462919101119,-0.007798268459737301,-0.028810076415538788
1791048997188750300,1.860750244140625,0.006511961575597525,-0.00875008199363947,0.005824333056807518
1791048997198708200,1.870708251953125,-0.0013520868960767984,-0.011061705648899078,-0.013552027754485607
1791048997208667400,1.88066748046875,-0.001103880233131349,-0.008961270563304424,-0.004311657976359129
1791048997218625300,1.890625244140625,0.0030948594212532043,-0.010216685011982918,0.004987834487110376
1791048997228583400,1.90058349609375,-0.0009957558941096067,-0.010953848250210285,-0.0448785237967968
1791048997238542300,1.910542236328125,0.0049223206005990505,-0.005176386330276728,0.025237979367375374
1791048997248500200,1.920500244140625,0.0032535837963223457,-0.006734601687639952,-0.04041479900479317
1791048997258458000,1.9304580078125,0.006066414527595043,-0.004769721534103155,0.036609675735235214
1791048997268417000,1.9404169921875,0.007336209993809462,-0.006536995060741901,-0.04457652196288109
1791048997278375200,1.950375244140625,0.003931092098355293,-0.005572131834924221,0.014463361352682114
1791048997288333000,1.9603330078125,-0.0013430321123450994,-0.005534847732633352,-0.022358568385243416
1791048997298292200,1.970292236328125,-0.0012594088912010193,-0.005616873037070036,-0.0076299565844237804
1791048997308250000,1.98025,0.004400607198476791,-0.004996356554329395,-0.005167864263057709
1791048997318208300,1.990208251953125,-0.001996039180085063,-0.0052054147236049175,-0.03418273851275444
1791048997328167200,2.000167236328125,0.0017209346406161785,0.0028447885997593403,0.0420214869081974
1791048997338125300,2.010125244140625,-0.0012503541074693203,-0.00791651289910078,-0.06161889061331749
1791048997348083200,2.020083251953125,-0.000008255799002654385,0.0008500810363329947,0.028118187561631203
1791048997358042400,2.03004248046875,-0.004664793144911528,0.0002615224220789969,-0.029292374849319458
1791048997368000000,2.04,-0.002086320426315069,-0.0014860439114272594,0.01901763305068016
1791048997377958100,2.049958251953125,-0.00296250032261014,-0.001023452845402062,-0.03508821129798889
1791048997387917000,2.0599169921875,-0.005943376570940018,-0.002692189533263445,0.010448912158608437
1791048997397875000,2.069875,-0.0092307822778821,-0.0008559399866499007,0.006479737348854542
1791048997407833000,2.0798330078125,-0.010408698581159115,-0.0032826124224811792,-0.04869323596358299
1791048997417792000,2.0897919921875,-0.007185474969446659,-0.0026487798895686865,0.023130619898438454
1791048997427750100,2.099750244140625,-0.01655340939760208,-0.0037982002831995487,-0.01483300793915987
1791048997437708000,2.1097080078125,-0.007164435926824808,-0.00013901700731366873,0.012801016680896282
1791048997447667200,2.119667236328125,-0.006243781186640263,-0.005624063778668642,-0.058281682431697845
1791048997457625000,2.129625,-0.010911237448453903,0.0008665926288813353,0.03290362283587456
1791048997467583200,2.139583251953125,-0.010073140263557434,-0.0030162963084876537,-0.009502158500254154
1791048997477542100,2.149542236328125,-0.015745406970381737,-0.005507949739694595,-0.005838980432599783
1791048997487500300,2.159500244140625,-0.016534768044948578,-0.006359096150845289,-0.03391988202929497
1791048997497458200,2.169458251953125,-0.020208066329360008,-0.0036155073903501034,0.007614243775606155
1791048997507417000,2.1794169921875,-0.020067451521754265,-0.003968376200646162,0.010457168333232403
1791048997517375200,2.189375244140625,-0.019765716046094894,-0.0040456079877913,-0.019215239211916924
1791048997527333400,2.19933349609375,-0.015606656670570374,-0.002847185591235757,0.01079512294381857
1791048997537292300,2.209292236328125,-0.020986508578062057,-0.007300523575395346,-0.052932724356651306
1791048997547250000,2.21925,-0.013513412326574326,0.0013789847726002336,0.03970133885741234
1791048997557208000,2.2292080078125,-0.02022617496550083,-0.003165965899825096,-0.031024495139718056
1791048997567167000,2.2391669921875,-0.02437511458992958,0.004751079250127077,0.04581382870674133
1791048997577125000,2.249125,-0.018676482141017914,-0.0031169636640697718,-0.04483857750892639
1791048997587083000,2.2590830078125,-0.025122130289673805,0.0028003137558698654,0.0035294874105602503
1791048997597042200,2.269042236328125,-0.021344969049096107,0.0024913870729506016,0.006672017276287079
1791048997607000000,2.279,-0.02659299410879612,0.006394516211003065,0.024263527244329453
1791048997616958200,2.288958251953125,-0.019230419769883156,0.008562062866985798,0.006680539343506098
1791048997626917000,2.298917236328125,-0.026038259267807007,-0.000018908443962573074,-0.045709699392318726
1791048997636875300,2.308875244140625,-0.023996412754058838,0.005375057924538851,0.03846829757094383
1791048997646833200,2.318833251953125,-0.030664967373013496,0.004128965083509684,-0.007564975414425135
1791048997656792000,2.3287919921875,-0.01882988028228283,0.008864065632224083,0.05040378496050835
1791048997666750200,2.338750244140625,-0.020552946254611015,-0.000185888638952747,-0.04926581680774689
1791048997676708000,2.3487080078125,-0.016629843041300774,0.00592686515301466,0.04175224155187607
1791048997686666200,2.358666259765625,-0.024837972596287727,0.006040315609425306,0.009819607250392437
1791048997696625200,2.368625244140625,-0.021509019657969475,0.005400091875344515,0.01667751371860504
1791048997706583300,2.378583251953125,-0.023386282846331596,0.0009920274605974555,-0.028189826756715775
1791048997716541000,2.388541015625,-0.02785453386604786,0.004481567535549402,0.0327313132584095
1791048997726500000,2.3985,-0.0297312643378973,0.001931058126501739,0.017905231565237045
1791048997736458000,2.4084580078125,-0.021045098081231117,0.0015395734226331115,-0.0070645674131810665
1791048997746416000,2.418416015625,-0.023383352905511856,0.0007038734620437026,0.009496033191680908
1791048997756375000,2.428375,-0.03291400894522667,0.000017843178284238093,-0.009240103885531425
1791048997766333200,2.438333251953125,-0.023912789300084114,0.0015044197207316756,0.028534438461065292
1791048997776291000,2.448291015625,-0.02689739502966404,-0.001261805766262114,-0.022766565904021263
1791048997786250200,2.458250244140625,-0.02052951045334339,0.0011544802691787481,0.03458274528384209
1791048997796208000,2.4682080078125,-0.029194902628660202,-0.001193362521007657,-0.03019758313894272
1791048997806166300,2.478166259765625,-0.02978505939245224,-0.00020586235041264445,0.024113591760396957
1791048997816125200,2.488125244140625,-0.030914772301912308,0.0031473238486796618,-0.00013875069271307439
1791048997826083000,2.4980830078125,-0.028687836602330208,-0.0012620720081031322,0.019881296902894974
1791048997836041200,2.508041259765625,-0.020379573106765747,-0.003923634998500347,-0.01648709736764431
1791048997846000000,2.518000244140625,-0.034027207642793655,-0.004141747951507568,-0.009336243383586407
1791048997855958300,2.527958251953125,-0.02834588661789894,-0.0029204224701970816,0.04605377838015556
1791048997865916200,2.537916259765625,-0.021732192486524582,-0.009221994318068027,-0.031135015189647675
1791048997875875300,2.547875244140625,-0.0025241440162062645,-0.006617955397814512,0.012967996299266815
1791048997885833200,2.557833251953125,-0.010942395776510239,-0.007385744713246822,-0.012688631191849709
1791048997895791000,2.567791015625,-0.00395665830001235,-0.00734340026974678,0.037094373255968094
1791048997905750000,2.57775,-0.01318371295928955,-0.009490973316133022,-0.026975424960255623
1791048997915708200,2.587708251953125,-0.0004543352697510272,-0.008007592521607876,0.02148878015577793
1791048997925666000,2.597666015625,0.0029981867410242558,-0.008128766901791096,-0.019811522215604782
1791048997935625000,2.607625,0.0010423612548038363,-0.009586847387254238,0.00929336715489626
1791048997945583000,2.6175830078125,-0.00942119862884283,-0.007065898738801479,-0.02834162674844265
1791048997955541200,2.627541259765625,-0.005812082905322313,-0.010277670808136463,0.004996356554329395
1791048997965500200,2.637500244140625,-0.0018692727899178863,-0.011834288947284222,-0.019511116668581963
1791048997975458000,2.6474580078125,0.0008546083699911833,-0.012015916407108307,-0.03326927497982979
1791048997985416200,2.657416259765625,-0.0006119944155216217,-0.010408698581159115,0.00138084904756397
1791048997995375000,2.667375,0.000523577444255352,-0.014162157662212849,-0.048583514988422394
1791048998005333200,2.677333251953125,0.014134727418422699,-0.013437245041131973,0.01432274654507637
1791048998015291100,2.687291015625,0.009164470247924328,-0.012434565462172031,-0.030054038390517235
1791048998025250300,2.697250244140625,0.015427691861987114,-0.01366281509399414,-0.02304433286190033
1791048998035208200,2.707208251953125,0.017974739894270897,-0.018438395112752914,-0.08372339606285095
1791048998045166300,2.717166259765625,0.017476195469498634,-0.0073316823691129684,0.03620993718504906
1791048998055125200,2.727125244140625,0.01919393427670002,-0.012317919172346592,-0.02869636006653309
1791048998065083100,2.737083251953125,0.024873126298189163,-0.014196778647601604,-0.017918545752763748
1791048998075041000,2.747041015625,0.023617444559931755,-0.016342220827937126,-0.06190251559019089
1791048998085000000,2.757,0.0241993460804224,-0.016217852011322975,0.013112340122461319
1791048998094958000,2.7669580078125,0.02672428824007511,-0.018384067341685295,-0.027628431096673012
1791048998104916000,2.776916015625,0.02263367362320423,-0.015964053571224213,0.024883512407541275
1791048998114875100,2.786875244140625,0.020003534853458405,-0.016217585653066635,-0.0362916961312294
1791048998124833000,2.7968330078125,0.01563674956560135,-0.01732492819428444,-0.030062828212976456
1791048998134791200,2.806791259765625,0.020135628059506416,-0.014476144686341286,0.003585413796827197
1791048998144750000,2.81675,0.006530337035655975,-0.009910421445965767,-0.005760150961577892
1791048998154708200,2.826708251953125,0.009530387818813324,-0.008378304541110992,0.008991897106170654
1791048998164666000,2.836666015625,0.01667884550988674,-0.010655040852725506,-0.028432440012693405
1791048998174625300,2.846625244140625,0.01690255105495453,-0.00845340546220541,0.013045494444668293
1791048998184583200,2.856583251953125,0.006942062173038721,-0.008156996220350266,-0.014020743779838085
1791048998194541300,2.866541259765625,0.010368218645453453,-0.009616941213607788,0.015991749241948128
1791048998204500200,2.876500244140625,0.00010918960470007733,-0.0073236930184066296,-0.002779541304334998
1791048998214458000,2.8864580078125,0.008273376151919365,-0.008105331100523472,0.026276877149939537
1791048998224416300,2.896416259765625,0.010838532820343971,-0.010214287787675858,-0.030004771426320076
1791048998234375200,2.906375244140625,0.015066567808389664,-0.006874950136989355,0.016469787806272507
1791048998244333000,2.9163330078125,-0.0009752495680004358,-0.009884322062134743,-0.010070743970572948
1791048998254291000,2.926291015625,0.001401355373673141,-0.0033129723742604256,0.04193013906478882
1791048998264250400,2.93625048828125,0.0006886934279464185,-0.009132511913776398,-0.04524657502770424
1791048998274208000,2.9462080078125,0.0026642263401299715,-0.005615274887531996,0.018304971978068352
1791048998284166100,2.956166259765625,-0.0034935346338897943,-0.004691424313932657,-0.012863067910075188
1791048998294125000,2.966125,0.0029382656794041395,-0.003278883872553706,0.07084887474775314
1791048998304083200,2.976083251953125,-0.0033800839446485043,-0.00555109279230237,-0.030842334032058716
1791048998314041000,2.986041015625,-0.004987301770597696,-0.008100003935396671,0.009854228235781193
1791048998324000000,2.996,-0.016814399510622025,-0.0060019660741090775,-0.002769953804090619
1791048998333958100,3.005958251953125,-0.015251390635967255,-0.006411560345441103,0.03620540723204613
1791048998343916300,3.015916259765625,-0.018311629071831703,-0.006828611250966787,-0.037449635565280914
1791048998353875200,3.025875244140625,-0.021994248032569885,-0.005637912079691887,0.0029047098942101
1791048998363833000,3.0358330078125,-0.02659059874713421,-0.00330285239033401,0.0008295746520161629
1791048998373791200,3.045791259765625,-0.01727832295000553,-0.0034378746058791876,0.028741367161273956
1791048998383750100,3.055750244140625,-0.017661018297076225,-0.007692008279263973,-0.08495643734931946
1791048998393708300,3.065708251953125,-0.015489477664232254,-0.003594468580558896,0.01577123999595642
1791048998403666200,3.075666259765625,-0.028076641261577606,-0.0035989959724247456,0.015837285667657852
1791048998413625300,3.085625244140625,-0.020434968173503876,-0.0032653016969561577,-0.01679788902401924
1791048998423583200,3.095583251953125,-0.01350355800241232,-0.012684369459748268,-0.0730835348367691
1791048998433542100,3.105542236328125,-0.013538711704313755,-0.0044235107488930225,0.0022738068364560604
1791048998443500300,3.115500244140625,-0.025659557431936264,-0.005786516238003969,-0.013277722522616386
1791048998453458200,3.125458251953125,-0.02279719151556492,-0.00848456472158432,-0.04586655646562576
1791048998463417300,3.135417236328125,-0.016327574849128723,-0.0033776871860027313,-0.040883250534534454
1791048998473375000,3.145375,-0.002258360618725419,-0.0030663637444376945,0.00860067829489708
1791048998483333000,3.1553330078125,-0.007152718026190996,-0.0033622407354414463,-0.03772793710231781
1791048998493292000,3.1652919921875,-0.018814699724316597,-0.0052376389503479,-0.032524120062589645
1791048998503250200,3.175250244140625,-0.02694985829293728,-0.00185036426410079,-0.01955932006239891
1791048998513208000,3.1852080078125,-0.0030282805673778057,-0.005830724723637104,-0.014251107349991798
1791048998523167200,3.195167236328125,-0.010333064943552017,-0.005316734779626131,-0.0613885261118412
1791048998533125000,3.205125,-0.016624249517917633,-0.004764395300298929,-0.022226741537451744
1791048998543083300,3.215083251953125,-0.021587051451206207,-0.001264468883164227,0.01110431645065546
1791048998553042200,3.225042236328125,-0.008976982906460762,-0.005953230429440737,-0.03677559271454811
1791048998563000300,3.235000244140625,-0.004366518929600716,-0.0037092508282512426,-0.0549258328974247
1791048998572958200,3.244958251953125,-0.004817658569663763,-0.006324208807200193,-0.040586307644844055
1791048998582917000,3.254917236328125,-0.01726687140762806,0.0007978830835781991,0.03447328880429268
1791048998592875300,3.264875244140625,-0.0051928977482020855,-0.005973204039037228,-0.024504011496901512
1791048998602833200,3.274833251953125,-0.01107502169907093,-0.005495166406035423,-0.02315698377788067
1791048998612792300,3.284792236328125,-0.005511145573109388,-0.008323975838720798,-0.06144258752465248
1791048998622750200,3.294750244140625,-0.007711715530604124,-0.004219512455165386,-0.006447513122111559
1791048998632708000,3.3047080078125,-0.006374276243150234,-0.005605155136436224,0.0024770060554146767
1791048998642667300,3.314667236328125,-0.006818757392466068,-0.004275705199688673,0.0008351673022843897
1791048998652625200,3.324625244140625,-0.0025965820532292128,-0.008156197145581245,-0.037277065217494965
1791048998662583000,3.3345830078125,-0.0038133803755044937,-0.006464823614805937,-0.02347736246883869
1791048998672542200,3.344542236328125,-0.0013156015193089843,-0.005570267792791128,-0.010355168953537941
1791048998682500000,3.3545,-0.010292052291333675,-0.00018216021999251097,0.027654264122247696
1791048998692458200,3.364458251953125,-0.01206864695996046,-0.007466970942914486,-0.034145187586545944
1791048998702417200,3.374417236328125,-0.014150706119835377,-0.004508199170231819,-0.036619797348976135
1791048998712375000,3.384375,-0.005556419026106596,-0.004402471706271172,-0.01750202849507332
1791048998722333200,3.394333251953125,-0.0148623026907444,-0.0015491608064621687,0.02798156626522541
1791048998732292000,3.4042919921875,-0.006821953225880861,-0.007111705373972654,-0.00953970942646265
1791048998742250200,3.414250244140625,-0.010977017693221569,-0.004040814470499754,-0.03598489984869957
1791048998752208100,3.4242080078125,-0.011138404719531536,-0.005543103441596031,-0.027148796245455742
1791048998762167300,3.434167236328125,-0.011966913938522339,-0.0019443739438429475,0.033969949930906296
1791048998772125200,3.444125244140625,-0.0043678502552211285,-0.006331931799650192,-0.02895069122314453
1791048998782083300,3.454083251953125,-0.01107635349035263,-0.003626959165558219,-0.03586772084236145
1791048998792042200,3.464042236328125,-0.01070963591337204,-0.0041702440939843655,-0.0012218583142384887
1791048998802000400,3.47400048828125,-0.01684502698481083,0.00016698020044714212,0.0033744913525879383
1791048998811958000,3.4839580078125,0.001603222917765379,-0.006711964961141348,-0.023058447986841202
1791048998821917200,3.493917236328125,-0.007832356728613377,-0.004255198873579502,-0.0374794639647007
1791048998831875000,3.503875,-0.011536281555891037,-0.0007483482477255166,0.015264440327882767
1791048998841833200,3.513833251953125,-0.023144999518990517,-0.002822417998686433,0.008450210094451904
1791048998851792100,3.523792236328125,-0.014998390339314938,-0.005160140804946423,-0.022474681958556175
1791048998861750000,3.53375,-0.015231417492032051,-0.00498011102899909,-0.026198314502835274
1791048998871708200,3.543708251953125,-0.025785524398088455,-0.003227751236408949,0.0021885856986045837
1791048998881667000,3.5536669921875,-0.02749474160373211,-0.002323075430467725,0.012119779363274574
1791048998891625200,3.563625244140625,-0.029150161892175674,-0.004348409362137318,0.007130081299692392
1791048998901583000,3.5735830078125,-0.022702116519212723,-0.004867991898208857,-0.01894386298954487
1791048998911542300,3.583542236328125,-0.02280624583363533,-0.004299141000956297,-0.006443518213927746
1791048998921500200,3.593500244140625,-0.021379856392741203,-0.004602741450071335,0.0012663330417126417
1791048998931458300,3.603458251953125,-0.009167931973934174,-0.009875267744064331,0.013188240118324757
1791048998941417200,3.613417236328125,-0.011265438050031662,-0.007161772809922695,-0.017019197344779968
1791048998951375400,3.623375244140625,-0.01064944826066494,-0.012621785514056683,0.0057412427850067616
1791048998961333200,3.633333251953125,-0.021391574293375015,-0.0071010529063642025,-0.01570013351738453
1791048998971292200,3.643292236328125,0.002439721953123808,-0.0157142486423254,-0.01079512294381857
1791048998981250300,3.653250244140625,-0.011157313361763954,-0.004614192992448807,0.005887183826416731
1791048998991208200,3.663208251953125,0.0017369136912748218,-0.01381062064319849,0.026673156768083572
1791048999001167400,3.67316748046875,-0.012165586464107037,-0.007696801796555519,-0.03391695395112038
1791048999011125000,3.683125,-0.010946124792098999,-0.008481902070343494,-0.000556600687559694
1791048999021083100,3.693083251953125,-0.019168900325894356,-0.007218498270958662,-0.027272634208202362
1791048999031042000,3.7030419921875,-0.010537861846387386,-0.006060821935534477,0.015670305117964745
1791048999041000200,3.713000244140625,-0.0228017196059227,-0.003736414946615696,-0.025190841406583786
1791048999050958000,3.7229580078125,-0.009380452334880829,-0.0030506509356200695,-0.014463361352682114
1791048999060917200,3.732917236328125,-0.014867628924548626,-0.0024487765040248632,-0.017593907192349434
1791048999070875100,3.742875244140625,-0.0049734534695744514,-0.001728657865896821,-0.0012903015594929457
1791048999080833300,3.752833251953125,-0.02002856880426407,-0.005395297892391682,-0.009777795523405075
1791048999090792200,3.762792236328125,-0.009030512534081936,-0.004504736978560686,-0.011714712716639042
1791048999100750000,3.77275,-0.004120708908885717,-0.00341523764654994,-0.04963599517941475
1791048999110708200,3.782708251953125,0.0115559883415699,-0.003890611929818988,-0.006140450481325388
1791048999120667100,3.792667236328125,0.0029023129027336836,-0.005366802215576172,-0.00005858954318682663
1791048999130625300,3.802625244140625,-0.001998702296987176,-0.008088020607829094,0.004485828336328268
1791048999140584200,3.812584228515625,-0.007954062893986702,-0.006295712664723396,-0.03839399293065071
1791048999150542300,3.822542236328125,0.0010865697404369712,-0.011787950061261654,-0.01465697307139635
1791048999160500200,3.832500244140625,-0.004415254574269056,-0.004977447912096977,0.0009395632077939808
1791048999170459400,3.84245947265625,-0.004400340840220451,-0.010076602920889854,0.013839116320014
1791048999180417300,3.852417236328125,-0.0060179452411830425,-0.008627843111753464,-0.021992916241288185
1791048999190375200,3.862375244140625,-0.0018314558546990156,-0.012468121014535427,-0.014372281730175018
1791048999200334000,3.872333984375,0.005596366710960865,-0.009010539390146732,0.009862218052148819
1791048999210292200,3.882292236328125,-0.001568069215863943,-0.012942696921527386,0.02870381623506546
1791048999220250000,3.89225,-0.012356001883745193,-0.010325607843697071,0.01882961392402649
1791048999230209000,3.902208984375,-0.014667359180748463,-0.016222646459937096,-0.001998968655243516
1791048999240167200,3.912167236328125,-0.00917538907378912,-0.015473231673240662,0.012659869156777859
1791048999250125000,3.922125,-0.015245531685650349,-0.011305651627480984,0.03376089408993721
1791048999260084700,3.932084716796875,-0.004070109222084284,-0.01528787612915039,0.054558318108320236
1791048999270042600,3.942042724609375,-0.013626595959067345,-0.008510664105415344,0.029521673917770386
1791048999280000500,3.95200048828125,0.0008844357798807323,-0.013726198114454746,0.012863600626587868
1791048999289959700,3.961959716796875,-0.005274923052638769,-0.007987619377672672,0.04017484933137894
1791048999299917600,3.97191748046875,0.013525396585464478,-0.01133840810507536,0.07261934131383896
1791048999309875500,3.98187548828125,-0.0101977763697505,-0.008495483547449112,0.04326731339097023
1791048999319834400,3.99183447265625,-0.0007344998302869499,-0.013050820678472519,0.036496490240097046
1791048999329792500,4.00179248046875,-0.008714129216969013,-0.00923317950218916,-0.002523078816011548
1791048999339750700,4.011750732421875,0.013961088843643665,-0.009572732262313366,0.06875909119844437
1791048999349709600,4.02170947265625,-0.01037674117833376,-0.008256332017481327,0.0324237197637558
1791048999359667500,4.03166748046875,0.010146643966436386,-0.014871890656650066,0.04249899089336395
1791048999369625600,4.04162548828125,-0.008022773079574108,-0.007142597809433937,0.09603944420814514
1791048999379584500,4.05158447265625,-0.01721201092004776,-0.01410756353288889,0.06492014229297638
1791048999389542700,4.061542724609375,-0.009313073940575123,-0.022847259417176247,0.02713841013610363
1791048999399500500,4.07150048828125,0.026343191042542458,-0.02003176510334015,-0.0014671353856101632
1791048999409459700,4.081459716796875,0.02299080230295658,-0.015912653878331184,0.047802142798900604
1791048999419417600,4.09141748046875,0.017797905951738358,-0.014242053031921387,0.0770132914185524
1791048999429375700,4.101375732421875,0.019404323771595955,-0.015920110046863556,0.06600005179643631
1791048999439334700,4.111334716796875,0.02497805468738079,-0.014966432936489582,0.03417980670928955
1791048999449292500,4.12129248046875,0.028565332293510437,-0.014989868737757206,0.02153565175831318
1791048999459250400,4.13125048828125,0.009890713728964329,-0.011293134652078152,0.01312245987355709
1791048999469209600,4.141209716796875,0.013221529312431812,-0.009313340298831463,0.07554296404123306
1791048999479167500,4.15116748046875,0.012052135542035103,-0.007680024020373821,0.10094153136014938
1791048999489125400,4.16112548828125,0.02406299114227295,-0.0114369448274374,0.043346140533685684
1791048999499084500,4.17108447265625,0.011484881862998009,-0.015262575820088387,-0.01035383716225624
1791048999509042400,4.18104248046875,0.012123508378863335,-0.013824203051626682,0.024745559319853783
1791048999519001600,4.191001708984375,0.002089516259729862,-0.010746121406555176,0.06509431451559067
1791048999528959500,4.20095947265625,0.02664785645902157,-0.011510448530316353,0.06940677016973495
1791048999538917600,4.210917724609375,0.023031815886497498,-0.018029067665338516,-0.0008660599705763161
1791048999548876500,4.22087646484375,0.024232901632785797,-0.014941398985683918,0.020777450874447823
1791048999558834400,4.23083447265625,0.020729247480630875,-0.014224209822714329,0.05054573342204094
1791048999568792600,4.24079248046875,0.020769726485013962,-0.014148043468594551,0.02587367594242096
1791048999578751500,4.25075146484375,0.01961737684905529,-0.017432520166039467,0.005006209947168827
1791048999588709600,4.260709716796875,0.007748999632894993,-0.01218715775758028,0.010434797964990139
1791048999598667500,4.27066748046875,0.0032618397381156683,-0.010855576954782009,0.05443554371595383
1791048999608626700,4.280626708984375,-0.0029702235478907824,-0.006590791046619415,0.036622993648052216
1791048999618584600,4.29058447265625,0.007120493799448013,-0.013226589187979698,-0.009609750472009182
1791048999628542700,4.300542724609375,-0.005706355441361666,-0.0014205301413312554,-0.0017366473330184817
1791048999638501600,4.310501708984375,-0.0012128035305067897,-0.010122142732143402,0.010778611525893211
1791048999648459800,4.320459716796875,-0.015595471486449242,-0.0031609057914465666,0.030349383130669594
1791048999658417400,4.33041748046875,-0.005829127039760351,-0.005061870440840721,0.02767849899828434
1791048999668376300,4.340376220703125,-0.006078398786485195,-0.008116516284644604,-0.034441862255334854
1791048999678334500,4.35033447265625,-0.001960885478183627,-0.009621734730899334,-0.01888873614370823
1791048999688292600,4.360292724609375,-0.013102485798299313,-0.006669620517641306,0.005134041886776686
1791048999698251500,4.37025146484375,-0.006413690745830536,-0.006907174363732338,0.019448265433311462
1791048999708209400,4.38020947265625,-0.003719637170433998,-0.011633220128715038,-0.018862903118133545
1791048999718167600,4.39016748046875,-0.004020574036985636,-0.013345899060368538,-0.03863980248570442
1791048999728126500,4.40012646484375,-0.009534116834402084,-0.010089385323226452,-0.010206830687820911
1791048999738084600,4.410084716796875,-0.017192834988236427,-0.00574843306094408,-0.014111557975411415
1791048999748042500,4.42004248046875,-0.005685582756996155,-0.006661364808678627,-0.03862275928258896
1791048999758001700,4.430001708984375,-0.017780061811208725,-0.003710848744958639,-0.037451233714818954
1791048999767959600,4.43995947265625,-0.010272610932588577,-0.0022058964241296053,-0.006612895056605339
1791048999777917700,4.449917724609375,-0.031127292662858963,-0.004896754398941994,-0.054433681070804596
1791048999787876600,4.459876708984375,-0.01889965496957302,-0.0010090717114508152,-0.05554528534412384
1791048999797834800,4.469834716796875,-0.03321574255824089,0.00043356261448934674,-0.039988961070775986
1791048999807793700,4.479793701171875,-0.027272634208202362,0.0008085357258096337,-0.038609977811574936
1791048999817751600,4.48975146484375,-0.04675552248954773,0.0009041432058438659,-0.07288725674152374
1791048999827709700,4.499709716796875,-0.04820321500301361,0.0016231966437771916,-0.08211857080459595
1791048999837668600,4.509668701171875,-0.05522117763757706,0.006256031803786755,-0.023433687165379524
1791048999847626500,4.51962646484375,-0.043897151947021484,-0.00007669904152862728,-0.08399397134780884
1791048999857584400,4.52958447265625,-0.04451873153448105,0.0012564794160425663,-0.052380651235580444
1791048999867543600,4.53954345703125,-0.050992611795663834,0.0006894923863001168,-0.04432911425828934
1791048999877501400,4.54950146484375,-0.056780990213155746,0.003156911116093397,-0.05691388249397278
1791048999887459600,4.55945947265625,-0.030007433146238327,-0.010321080684661865,-0.11789840459823608
1791048999897418500,4.56941845703125,-0.033061280846595764,-0.014313159510493279,-0.12484286725521088
1791048999907376600,4.579376708984375,-0.029752302914857864,-0.002028796123340726,0.012980246916413307
1791048999917334500,4.58933447265625,-0.025530127808451653,0.0007890945998951793,0.0026993800420314074
1791048999927293400,4.59929345703125,-0.02395513467490673,-0.0014056164072826505,-0.041066475212574005
1791048999937251600,4.60925146484375,-0.010451842099428177,-0.012659336440265179,-0.13161581754684448
1791048999947209500,4.61920947265625,-0.027968784794211388,-0.01667911186814308,-0.06364049762487411
1791048999957168600,4.629168701171875,-0.019344935193657875,-0.012805011123418808,-0.029289711266756058
1791048999967126500,4.63912646484375,-0.02365126647055149,-0.007577226031571627,-0.01053200289607048
1791048999977084700,4.649084716796875,-0.018638931214809418,-0.014858041889965534,-0.05886624753475189
1791048999987043600,4.659043701171875,-0.009644105099141598,-0.015121428295969963,-0.05541558936238289
1791048999997001700,4.669001708984375,-0.011489941738545895,-0.0086603332310915,-0.06903126835823059
1791049000006959600,4.678959716796875,-0.008833439089357853,-0.009534383192658424,-0.05647925287485123
1791049000016918800,4.688918701171875,-0.0322631299495697,0.004565190523862839,0.037457894533872604
1791049000026876400,4.69887646484375,-0.02014947682619095,0.004009921569377184,0.04524337872862816
1791049000036834600,4.70883447265625,-0.016686834394931793,-0.009623865596950054,-0.04707243666052818
1791049000046793500,4.71879345703125,0.0016418388113379478,-0.02129357121884823,-0.11750932037830353
1791049000056751600,4.728751708984375,-0.009491772390902042,-0.0199260376393795,-0.03705256059765816
1791049000066710500,4.73871044921875,-0.0015611450653523207,-0.014540060423314571,0.0011997540714219213
1791049000076668400,4.74866845703125,0.0025808694772422314,-0.019756127148866653,-0.013641243800520897
1791049000086626600,4.75862646484375,0.008023571223020554,-0.022357236593961716,-0.07803381234407425
1791049000096585500,4.76858544921875,0.015473764389753342,-0.01961977407336235,-0.007321562618017197
1791049000106543600,4.778543701171875,0.0009334379574283957,-0.015783224254846573,-0.022462697699666023
1791049000116501500,4.78850146484375,0.016745157539844513,-0.021624868735671043,-0.04493977874517441
1791049000126460700,4.798460693359375,0.01101403497159481,-0.019177954643964767,-0.06605838239192963
1791049000136418600,4.80841845703125,0.024225711822509766,-0.022718895226716995,-0.04139857366681099
1791049000146376700,4.818376708984375,0.016830911859869957,-0.024098943918943405,-0.009948770515620708
1791049000156335600,4.828335693359375,0.0009001484140753746,-0.02929743565618992,-0.08088499307632446
1791049000166293500,4.83829345703125,0.018379539251327515,-0.029195435345172882,-0.04590597376227379
1791049000176251600,4.848251708984375,0.014709703624248505,-0.025859560817480087,-0.03206685557961464
1791049000186210600,4.85821044921875,0.01489612553268671,-0.029466811567544937,0.001898301183246076
1791049000196168700,4.868168701171875,0.016536366194486618,-0.02606036327779293,-0.014166685752570629
1791049000206126300,4.878126220703125,0.01828526332974434,-0.0252158734947443,-0.03693085163831711
1791049000216085800,4.888085693359375,0.03383120149374008,-0.02634798362851143,-0.03218882903456688
1791049000226043400,4.89804345703125,0.037885863333940506,-0.02508697658777237,-0.05101045221090317
1791049000236001500,4.90800146484375,0.023021163418889046,-0.026211364194750786,-0.01721254177391529
1791049000245960400,4.91796044921875,0.01678750291466713,-0.023334616795182228,0.012521917000412941
1791049000255918600,4.927918701171875,0.023359118029475212,-0.023606525734066963,-0.006595584563910961
1791049000265876200,4.937876220703125,0.0332903116941452,-0.02304806187748909,-0.06496328860521317
1791049000275835400,4.94783544921875,0.049734801054000854,-0.02442225255072117,-0.03738385811448097
1791049000285793300,4.957793212890625,0.016036756336688995,-0.010855044238269329,0.008413458243012428
1791049000295752200,4.967752197265625,0.022044315934181213,-0.01312192715704441,0.03597637638449669
1791049000305710300,4.97771044921875,0.03099919483065605,-0.013262275606393814,-0.032163530588150024
1791049000315668200,4.987668212890625,0.053998254239559174,-0.015731824561953545,-0.04390567168593407
1791049000325627400,4.99762744140625,0.027452928945422173,-0.014189056120812893,0.041244108229875565
1791049000335585300,5.007585205078125,0.005062669049948454,-0.011667841114103794,0.04691904038190842
1791049000345543400,5.01754345703125,0.034749723970890045,-0.020437097176909447,-0.02377350628376007
1791049000355502300,5.02750244140625,0.04035994037985802,-0.015282017178833485,-0.046177882701158524
1791049000365460500,5.03746044921875,0.044201817363500595,-0.019270634278655052,0.022341525182127953
1791049000375418400,5.04741845703125,0.0129924975335598,-0.008506668731570244,0.1338432878255844
1791049000385377300,5.057377197265625,0.01606951467692852,-0.018981147557497025,0.018080467358231544
1791049000395335400,5.06733544921875,0.028326712548732758,-0.022185197100043297,-0.04477865621447563
1791049000405293600,5.07729345703125,0.02353302203118801,-0.01727885566651821,-0.009527725167572498
1791049000415252500,5.08725244140625,0.025121863931417465,-0.010114951990544796,0.11561021953821182
1791049000425210400,5.09721044921875,-0.0041065942496061325,-0.006572681479156017,0.06525490432977676
1791049000435168500,5.10716845703125,0.015059909783303738,-0.012327506206929684,0.032887108623981476
1791049000445127400,5.11712744140625,-0.007948470301926136,-0.0009661948424763978,0.021827001124620438
1791049000455085300,5.127085205078125,0.01480238139629364,-0.008158594369888306,0.019349729642271996
1791049000465043200,5.137043212890625,-0.010031861253082752,-0.005946838762611151,0.05859034135937691
1791049000475002400,5.14700244140625,-0.020914869382977486,0.0026964505668729544,0.12643037736415863
1791049000484960300,5.156960205078125,0.0041497377678751945,0.004956675227731466,0.11957593262195587
1791049000494919400,5.16691943359375,-0.0059569585137069225,-0.00657667638733983,-0.02419481799006462
1791049000504877300,5.176877197265625,0.018145447596907616,-0.009729326702654362,-0.03208709508180618
1791049000514835500,5.18683544921875,-0.00771810719743371,0.0036248285323381424,0.10239321738481522
1791049000524794400,5.19679443359375,-0.014513961970806122,0.008298676460981369,0.14013341069221497
1791049000534752300,5.206752197265625,-0.014785603620111942,0.0014034858904778957,0.07957525551319122
1791049000544710400,5.21671044921875,-0.007526625879108906,-0.008019843138754368,-0.04380340874195099
1791049000554669300,5.22666943359375,0.013916081748902798,-0.00458729499951005,0.04952787235379219
1791049000564627500,5.23662744140625,-0.016383234411478043,0.005532717332243919,0.06634120643138885
1791049000574585300,5.24658544921875,0.001466336427256465,-0.0046759783290326595,-0.0032642364967614412
1791049000584544500,5.25654443359375,-0.021334849298000336,0.0011267834343016148,0.009041432291269302
1791049000594502400,5.26650244140625,-0.02545422688126564,0.001987517112866044,0.029955502599477768
1791049000604460500,5.27646044921875,-0.02094842493534088,-0.0034615767654031515,0.023031283169984818
1791049000614419500,5.28641943359375,-0.03928428888320923,0.0029547770973294973,-0.06628421694040298
1791049000624377600,5.296377685546875,-0.015509184449911118,-0.001651426195167005,-0.007576426956802607
1791049000634335200,5.306335205078125,-0.05019313097000122,0.012737899087369442,-0.00003941478280466981
1791049000644294400,5.31629443359375,-0.025736788287758827,0.0037649108562618494,-0.0014330470003187656
1791049000654252300,5.326252197265625,-0.03686800226569176,0.00005193164179218002,-0.05961379408836365
1791049000664210400,5.33621044921875,-0.01937742717564106,0.002493517706170678,-0.061099573969841
1791049000675412500,5.34741259765625,-0.01786581613123417,-0.012447082437574863,-0.10621964931488037
1791049000685371400,5.357371337890625,-0.03548768535256386,0.0025427863001823425,-0.036141492426395416
1791049000695329500,5.36732958984375,-0.02341344766318798,0.008788431994616985,0.037937793880701065
1791049000705287400,5.377287353515625,-0.016274843364953995,0.013990649953484535,0.01660241186618805
1791049000715246300,5.387246337890625,-0.007784952409565449,-0.010114951990544796,-0.1279505044221878
1791049000725204500,5.39720458984375,-0.015350460074841976,-0.024509336799383163,-0.14412760734558105
1791049000735162600,5.40716259765625,-0.02353115938603878,-0.005264803301542997,-0.042284607887268066
1791049000745121500,5.41712158203125,0.001898034941405058,-0.0073410035111010075,0.030554713681340218
1791049000755079400,5.427079345703125,-0.010263290256261826,-0.004198473412543535,-0.044381845742464066
1791049000765037300,5.437037353515625,0.007881359197199345,-0.008844890631735325,-0.053763896226882935
1791049000774996200,5.446996337890625,-0.0035422705113887787,-0.017620539292693138,-0.1166621670126915
1791049000784954400,5.456954345703125,0.001017061178572476,-0.012034825049340725,-0.0607331208884716
1791049000794912300,5.466912353515625,0.0041553303599357605,-0.012797554023563862,0.028781047090888023
1791049000804871400,5.476871337890625,-0.016773121431469917,0.0009957558941096067,0.031912125647068024
1791049000814829300,5.486829345703125,0.020019514486193657,-0.017896974459290504,-0.03211719170212746
1791049000824787500,5.496787353515625,-0.011020692996680737,-0.021189972758293152,-0.110338494181633
1791049000834746400,5.506746337890625,0.005625395104289055,-0.01690574735403061,-0.030716633424162865
1791049000844704500,5.51670458984375,-0.01882908120751381,-0.020313527435064316,0.030001575127243996
1791049000854663400,5.526663330078125,-0.014704111032187939,-0.00968831405043602,0.04049469530582428
1791049000864621300,5.536621337890625,0.01204015128314495,-0.023495472967624664,-0.005834985990077257
1791049000874579500,5.546579345703125,-0.011607387103140354,-0.01948901265859604,-0.08741346746683121
1791049000884538400,5.556538330078125,0.022120214998722076,-0.02250264585018158,-0.04236769676208496
1791049000894496500,5.56649658203125,-0.0032522522378712893,-0.01085850689560175,0.08258888870477676
1791049000904454400,5.576454345703125,0.021334582939743996,-0.006277869455516338,0.0590907521545887
1791049000914413600,5.58641357421875,0.023071497678756714,-0.026615099981427193,-0.01714489795267582
1791049000924371500,5.596371337890625,0.006346312817186117,-0.027412183582782745,-0.09826238453388214
1791049000934329600,5.60632958984375,0.05061044543981552,-0.026569025591015816,-0.00800013542175293
1791049000944288500,5.61628857421875,0.0014674017438665032,-0.018196048215031624,0.06165830418467522
1791049000954246400,5.626246337890625,0.036742568016052246,-0.011744806542992592,0.06637822091579437
1791049000964204300,5.636204345703125,0.039318643510341644,-0.03221173211932182,-0.0351923406124115
1791049000974163200,5.6461630859375,0.0258044321089983,-0.022004900500178337,-0.0487947016954422
1791049000984121300,5.656121337890625,0.0448811873793602,-0.02901087887585163,0.01378212496638298
1791049000994079200,5.666079345703125,-0.002326803747564554,-0.013010340742766857,0.05807262286543846
1791049001004038400,5.676038330078125,0.03183143213391304,-0.014087589457631111,0.05630987882614136
1791049001013996300,5.685996337890625,0.01840990036725998,-0.018391257151961327,-0.027693146839737892
1791049001023954400,5.695954345703125,0.029934197664260864,-0.021073326468467712,-0.05145866423845291
1791049001033913300,5.705913330078125,0.0380224846303463,-0.01637577824294567,0.07496585696935654
1791049001043871500,5.71587158203125,0.009896839037537575,-0.004210724029690027,0.07336050271987915
1791049001053830400,5.725830322265625,0.042398057878017426,-0.026166623458266258,-0.04080601781606674
1791049001063788300,5.735788330078125,0.013163738884031773,-0.03263038024306297,-0.10236898064613342
1791049001073746400,5.745746337890625,0.01986798085272312,-0.014761368744075298,0.02466539852321148
1791049001083705300,5.755705322265625,0.023962058126926422,0.011806059628725052,0.16910113394260406
1791049001093663500,5.76566357421875,0.001800030586309731,0.0057130130007863045,0.07218178361654282
1791049001103621400,5.775621337890625,0.0008380967774428427,-0.028111528605222702,-0.10237590968608856
1791049001113580500,5.78558056640625,0.005988117773085833,-0.02116973325610161,-0.14311081171035767
1791049001123538400,5.795538330078125,0.050870105624198914,-0.008935438469052315,-0.03606612607836723
1791049001133496300,5.805496337890625,-0.014914234168827534,-0.007909854874014854,0.06444210559129715
1791049001143455500,5.81545556640625,0.02357909455895424,0.008897887542843819,0.024333035573363304
1791049001153413400,5.825413330078125,0.0025917883031070232,-0.017287909984588623,-0.04173679277300835
1791049001163371300,5.835371337890625,-0.0037465349305421114,-0.001975000137463212,-0.08716819435358047
1791049001173330400,5.845330322265625,0.016887636855244637,0.004326837603002787,0.04758456349372864
1791049001183288300,5.855288330078125,-0.008452340960502625,0.01507269311696291,0.02779567800462246
1791049001193246500,5.86524658203125,0.012517389841377735,-0.00307568465359509,-0.06787172704935074
1791049001203205400,5.875205322265625,0.0012463594321161509,-0.01847887597978115,-0.14931970834732056
1791049001213163300,5.885163330078125,-0.01619628071784973,-0.008176969364285469,-0.08243202418088913
1791049001223122400,5.895122314453125,-0.021252024918794632,0.004131628200411797,0.07390138506889343
1791049001233080300,5.905080322265625,-0.028712604194879532,0.014451643452048302,0.04791959002614021
1791049001243038500,5.91503857421875,-0.021508753299713135,-0.005811283830553293,-0.05654503405094147
1791049001252997400,5.924997314453125,-0.02418816089630127,-0.005685316398739815,-0.09855826199054718
1791049001262955500,5.93495556640625,-0.040076844394207,-0.003468767274171114,-0.026443591341376305
1791049001272912600,5.94491259765625,-0.037821948528289795,0.0035401401109993458,0.07853848487138748
1791049001282871800,5.954871826171875,-0.043891292065382004,-0.004612861201167107,-0.07711689174175262
1791049001292829700,5.96482958984375,-0.012114719487726688,-0.0140170156955719,-0.10416741669178009
1791049001302787800,5.974787841796875,-0.04701384902000427,-0.015489744022488594,-0.07351762801408768
1791049001312746800,5.984746826171875,-0.03335662558674812,-0.00436172541230917,0.03820065036416054
1791049001322705000,5.994704833984375,-0.03290095925331116,-0.0006439523422159255,0.04812385141849518
1791049001332662500,6.00466259765625,-0.03129720315337181,-0.007285077124834061,0.009417204186320305
1791049001342621700,6.01462158203125,-0.02412690781056881,-0.010552509687840939,-0.04373416304588318
1791049001352579600,6.02457958984375,-0.03761528432369232,-0.0073591130785644054,0.007920507341623306
1791049001362537700,6.034537841796875,-0.025539182126522064,-0.009194031357765198,0.018739067018032074
1791049001372496600,6.04449658203125,-0.0234115831553936,-0.011040667071938515,0.014768559485673904
1791049001382454500,6.05445458984375,-0.022592926397919655,-0.011418835259974003,-0.04595151171088219
1791049001392413700,6.06441357421875,-0.01775103434920311,-0.012679575942456722,-0.005133775528520346
1791049001402371600,6.07437158203125,-0.024358602240681648,-0.011061172932386398,-0.004400873556733131
1791049001412329700,6.084329833984375,-0.01600533165037632,-0.007873369380831718,0.05144774541258812
1791049001422288600,6.09428857421875,-0.014794925227761269,-0.0051739891059696674,0.020188359543681145
1791049001432246800,6.104246826171875,-0.0029174929950386286,-0.0055063520558178425,0.05484221130609512
1791049001442204700,6.11420458984375,-0.0027507790364325047,-0.012737366370856762,-0.02304113656282425
1791049001452163600,6.12416357421875,-0.009108277037739754,-0.005167065188288689,0.04345772787928581
1791049001462121700,6.134121826171875,-0.008731972426176071,-0.010430802591145039,-0.006214486435055733
1791049001472080000,6.144079833984375,0.0006215817993506789,-0.009514409117400646,0.0426609106361866
1791049001482038800,6.154038818359375,-0.003450657706707716,-0.004235491156578064,0.02960023656487465
1791049001491996700,6.16399658203125,0.003319896524772048,-0.010642257519066334,0.027524568140506744
1791049001501954800,6.173954833984375,0.004234692547470331,-0.011070228181779385,-0.0018170748371630907
1791049001511913700,6.183913818359375,0.0003427488263696432,-0.009219330735504627,0.03397820517420769
1791049001521872000,6.193871826171875,-0.008299741894006729,-0.005797169171273708,0.06252995878458023
1791049001531829500,6.20382958984375,0.009375126101076603,-0.013251356780529022,0.004227235447615385
1791049001541788700,6.21378857421875,0.02425047755241394,-0.014876417815685272,0.01281646266579628
1791049001551746600,6.22374658203125,-0.004197674337774515,-0.011982627213001251,-0.008994294330477715
1791049001561705500,6.23370556640625,0.014640461653470993,-0.012981578707695007,0.0715857669711113
1791049001571663600,6.24366357421875,0.01537362951785326,-0.01581997610628605,0.025078721344470978
1791049001581621800,6.253621826171875,0.033075928688049316,-0.007047256920486689,0.01690255105495453
1791049001591580700,6.26358056640625,0.028655080124735832,-0.019334282726049423,-0.050346795469522476
1791049001601538600,6.27353857421875,0.019824305549263954,-0.011810054071247578,0.04387611150741577
1791049001611496700,6.28349658203125,0.014488395303487778,-0.0034021881874650717,0.09335817396640778
1791049001621455600,6.29345556640625,0.03363252803683281,-0.008740228600800037,0.04355626553297043
1791049001631413800,6.303413818359375,0.026329874992370605,-0.015052719041705132,-0.08779696375131607
1791049001641371600,6.31337158203125,0.006687996443361044,-0.01938008889555931,-0.019177954643964767
1791049001651330800,6.323330810546875,-0.001490304945036769,-0.008023837581276894,0.07295330613851547
1791049001661288700,6.333288818359375,0.003686880227178335,-0.002856240142136812,0.08299501985311508
1791049001671246800,6.343246826171875,0.011710984632372856,-0.009011072106659412,0.012018846347928047
1791049001681205800,6.353205810546875,0.0023584954906255007,-0.012327506206929684,-0.043102994561195374
1791049001691164000,6.363163818359375,-0.004319913685321808,-0.006988933775573969,0.05771442875266075
1791049001701122800,6.373122802734375,-0.007215302437543869,-0.004756139125674963,0.06950557231903076
1791049001711080700,6.383080810546875,0.01543461624532938,-0.004254399798810482,0.047027431428432465
1791049001721038600,6.39303857421875,0.005558816250413656,-0.012957610189914703,-0.0663641095161438
1791049001730997800,6.402997802734375,0.006555104628205299,-0.013942713849246502,-0.01715288870036602
1791049001740955600,6.41295556640625,0.006798251066356897,-0.01047367975115776,0.018557971343398094
1791049001750913500,6.42291357421875,-0.0054517569951713085,0.0005696501466445625,0.11309832334518433
1791049001760872700,6.432872802734375,0.0073410035111010075,-0.010704842396080494,0.0029057750944048166
1791049001770830600,6.44283056640625,0.010280867107212543,-0.010371148586273193,-0.052394233644008636
1791049001780788700,6.452788818359375,0.003900465788319707,-0.00939030572772026,-0.0059537626802921295
1791049001790747600,6.46274755859375,-0.004340420011430979,-0.0013483584625646472,0.06364848464727402
1791049001800705800,6.472705810546875,0.021918348968029022,0.003549194661900401,0.037460822612047195
1791049001810663700,6.48266357421875,0.02822444774210453,-0.01600213535130024,-0.11321870237588882
1791049001820622600,6.49262255859375,0.010902448557317257,-0.020477578043937683,-0.045756835490465164
1791049001830580700,6.502580810546875,0.008855276741087437,-0.007734085898846388,-0.00797430332750082
1791049001840538600,6.51253857421875,0.030240725725889206,-0.000723048229701817,0.07294504344463348
1791049001850497800,6.522497802734375,0.041970886290073395,-0.01407746970653534,-0.052435245364904404
1791049001860455700,6.53245556640625,0.04610864073038101,-0.019588349387049675,-0.08564459532499313
1791049001870414800,6.542414794921875,0.021731393411755562,-0.028774656355381012,-0.09914655983448029
1791049001880372700,6.552372802734375,0.030735541135072708,-0.007577226031571627,0.008745821192860603
1791049001890331000,6.562330810546875,0.04421805962920189,-0.009341037832200527,0.01320821326225996
1791049001900289800,6.572289794921875,0.023812655359506607,-0.0107682254165411,-0.05239902436733246
1791049001910247700,6.58224755859375,0.02370373159646988,-0.01866316609084606,-0.1119592934846878
1791049001920205600,6.59220556640625,0.018090320751070976,-0.01985759474337101,-0.11261788755655289
1791049001930164500,6.60216455078125,0.036967337131500244,-0.007647267077118158,-0.022240323945879936
1791049001940122600,6.61212255859375,0.026150643825531006,-0.008130630478262901,-0.00538437906652689
1791049001950080500,6.62208056640625,-0.0012245214311406016,-0.0039049931801855564,-0.021200360730290413
1791049001960039700,6.632039794921875,0.00022743394947610795,-0.011658520437777042,-0.08342006057500839
1791049001969997600,6.64199755859375,0.01630973070859909,-0.016283098608255386,-0.12010537087917328
1791049001979955700,6.651955810546875,0.007136206608265638,-0.0065138256177306175,-0.04387664422392845
1791049001989914600,6.66191455078125,-0.005784652195870876,-0.004419249482452869,0.019332151859998703
1791049001999872800,6.671872802734375,-0.007872836664319038,-0.009723467752337456,-0.054243531078100204
1791049002009830700,6.68183056640625,0.011361044831573963,-0.015340606682002544,-0.11558012664318085
1791049002019789600,6.69178955078125,0.015027685090899467,-0.011212174780666828,-0.09999397397041321
1791049002029747700,6.701747802734375,0.004381965380162001,-0.007319165393710136,-0.01786661520600319
1791049002039706600,6.71170654296875,0.0004950816510245204,-0.007382016163319349,-0.014730743132531643
1791049002049664800,6.721664794921875,0.005453887395560741,-0.01209927350282669,-0.06892447173595428
1791049002059622700,6.73162255859375,0.0013440974289551377,-0.005662945564836264,-0.08159525692462921
1791049002069581800,6.741581787109375,0.010922422632575035,-0.008813465014100075,-0.07935793697834015
1791049002079539700,6.751539794921875,0.004043477587401867,-0.005907956510782242,-0.025903768837451935
1791049002089497900,6.761497802734375,-0.002627741079777479,0.0006625944515690207,-0.006220079027116299
1791049002099456800,6.771456787109375,-0.005218996666371822,-0.010219347663223743,-0.07724791765213013
1791049002109414700,6.78141455078125,-0.006390787661075592,-0.005426457151770592,-0.0947645902633667
1791049002119372500,6.79137255859375,-0.008447812870144844,-0.0021760689560323954,-0.021195299923419952
1791049002129331700,6.801331787109375,-0.02449309267103672,0.0030868700705468655,0.007050186395645142
1791049002139289600,6.81128955078125,-0.014816496521234512,0.0041585261933505535,-0.06973779946565628
1791049002149247700,6.821247802734375,-0.011469435878098011,0.0039867521263659,-0.10439591109752655
1791049002159206700,6.83120654296875,-0.007272826507687569,0.006595850922167301,-0.09033814817667007
1791049002169164500,6.84116455078125,-0.023147663101553917,0.01019724365323782,-0.030571224167943
1791049002179123700,6.851123779296875,-0.03049985133111477,0.007889081723988056,-0.038895733654499054
1791049002189081600,6.86108154296875,-0.01005103625357151,0.0007672567153349519,-0.0888582319021225
1791049002199039700,6.871039794921875,-0.01384098082780838,0.002752643311396241,-0.13043470680713654
1791049002208998700,6.88099853515625,-0.00586774293333292,0.006554838269948959,-0.05662359669804573
1791049002218956800,6.890956787109375,0.009561813436448574,0.004886634182184935,-0.04626816138625145
1791049002228914700,6.900914794921875,0.0054389736615121365,0.00245090713724494,-0.069151371717453
1791049002238873600,6.91087353515625,0.00768774701282382,0.0016588830621913075,-0.12470518052577972
1791049002248831700,6.920831787109375,0.007032609544694424,-0.004491953644901514,-0.10789983719587326
1791049002258790000,6.930789794921875,-0.002314020646736026,0.0011853729374706745,-0.03415690362453461
1791049002268748500,6.94074853515625,-0.0024799355305731297,0.002745985286310315,-0.024347949773073196
1791049002278706400,6.95070654296875,0.00016351809608750045,-0.004055728204548359,-0.093173086643219
1791049002288664600,6.96066455078125,0.0054826498962938786,-0.01164387259632349,-0.12422288209199905
1791049002298623500,6.97062353515625,0.008595085702836514,-0.004833370912820101,-0.016221048310399055
1791049002308581600,6.98058154296875,0.013146162033081055,-0.007497331127524376,0.021274928003549576
1791049002318540500,6.99054052734375,0.023129021748900414,-0.017949705943465233,-0.06921928375959396
1791049002328498700,7.000498779296875,0.02743535302579403,-0.022247249260544777,-0.0852682888507843
1791049002338456600,7.01045654296875,0.00942013319581747,-0.021291173994541168,-0.014008493162691593
1791049002348415500,7.02041552734375,0.010718158446252346,-0.018812038004398346,0.043772514909505844
1791049002358373400,7.030373291015625,0.016393087804317474,-0.023613717406988144,0.04742716997861862
1791049002368331500,7.04033154296875,0.008679774589836597,-0.02762230671942234,0.013915282674133778
1791049002378290400,7.05029052734375,0.03561738133430481,-0.035654667764902115,0.003038134193047881
1791049002388248300,7.060248291015625,0.048358477652072906,-0.04061693325638771,0.026393523439764977
1791049002398206500,7.07020654296875,0.03286420553922653,-0.0357273705303669,0.10219348222017288
1791049002408165400,7.080165283203125,0.03659263253211975,-0.04241643100976944,0.09632919728755951
1791049002418123500,7.09012353515625,0.05693918094038963,-0.04742663726210594,0.01805809698998928
1791049002428081400,7.100081298828125,0.07080679386854172,-0.04343722388148308,0.012488095089793205
1791049002438040600,7.11004052734375,0.06215684860944748,-0.03783606365323067,0.09689698368310928
1791049002447998500,7.11999853515625,0.055273640900850296,-0.03659369796514511,0.13054043054580688
1791049002457957600,7.12995751953125,0.06410921365022659,-0.03409991413354874,0.10726786404848099
1791049002467915500,7.13991552734375,0.07349738478660583,-0.03802115097641945,0.048165664076805115
1791049002477873700,7.149873779296875,0.06476221978664398,-0.030614102259278297,0.03905392438173294
1791049002487832600,7.15983251953125,0.0545271560549736,-0.026065422222018242,0.09890048205852509
1791049002497790500,7.16979052734375,0.050574760884046555,-0.02287309058010578,0.11877299100160599
1791049002507748600,7.17974853515625,0.05546938255429268,-0.015870841220021248,0.07794619351625443
1791049002517707500,7.18970751953125,0.06204366311430931,-0.011686483398079872,0.052499160170555115
1791049002527665700,7.199665771484375,0.056833453476428986,-0.009664079174399376,0.021223530173301697
1791049002537623300,7.209623291015625,0.034692734479904175,0.001817607437260449,0.09533824026584625
1791049002547582700,7.219582763671875,0.02002563886344433,0.004960137419402599,0.1130695641040802
1791049002557540400,7.229540283203125,0.022112226113677025,0.011612447910010815,0.08358997106552124
1791049002567498500,7.23949853515625,0.018736936151981354,0.009981794282793999,0.03236539661884308
1791049002577457400,7.24945751953125,0.02575383335351944,0.011869975365698338,0.04782531410455704
1791049002587415600,7.25941552734375,0.006810501683503389,0.019474098458886147,0.05873548611998558
1791049002597374500,7.26937451171875,-0.016019446775317192,0.018392588943243027,0.04670092463493347
1791049002607332400,7.279332275390625,-0.020720191299915314,0.02479482814669609,0.06396619975566864
1791049002617290500,7.28929052734375,-0.018643992021679878,0.021557223051786423,0.04032718390226364
1791049002627249400,7.29924951171875,-0.01818246580660343,0.02034388668835163,0.021255221217870712
1791049002637207600,7.30920751953125,-0.02743934653699398,0.0246675293892622,0.02779674343764782
1791049002647165400,7.31916552734375,-0.04103665053844452,0.025963157415390015,0.06441201269626617
1791049002657124600,7.32912451171875,-0.044432178139686584,0.023153256624937057,0.005449626594781876
1791049002667082500,7.33908251953125,-0.030553115531802177,0.02389521338045597,0.028860943391919136
1791049002677040600,7.34904052734375,-0.05566645786166191,0.030404511839151382,0.05320702865719795
1791049002686999600,7.35899951171875,-0.07159748673439026,0.02719779871404171,0.02598552778363228
1791049002696957700,7.368957763671875,-0.06268548220396042,0.019419504329562187,0.02628699690103531
1791049002706915600,7.37891552734375,-0.06464104354381561,0.023850737139582634,0.05729977414011955
1791049002716874500,7.38887451171875,-0.08349009603261948,0.023613717406988144,0.12229208648204803
1791049002726832600,7.39883251953125,-0.09065453708171844,0.030824225395917892,0.1157393828034401
1791049002736791600,7.40879150390625,-0.10425103455781937,0.019722837954759598,0.01684316247701645
1791049002746749400,7.41874951171875,-0.08355827629566193,0.010725880973041058,-0.01823972351849079
1791049002756707300,7.428707275390625,-0.09950821101665497,0.018802981823682785,0.06306951493024826
1791049002766666500,7.43866650390625,-0.0989055410027504,0.01769137941300869,0.11779534071683884
1791049002776624400,7.448624267578125,-0.08630745857954025,0.012410596944391727,0.02798715978860855
1791049002786582500,7.45858251953125,-0.07972678542137146,0.002139050979167223,-0.02424035780131817
1791049002796541400,7.46854150390625,-0.09024147689342499,-0.0012072109384462237,0.049732934683561325
1791049002806499600,7.47849951171875,-0.08523846417665482,0.008920257911086082,0.11428716033697128
1791049002816457500,7.48845751953125,-0.04695232957601547,0.013313674367964268,0.0922260656952858
1791049002826416400,7.49841650390625,-0.0653931200504303,-0.0008420915110036731,-0.008696818724274635
1791049002836374500,7.50837451171875,-0.054912783205509186,-0.0034967304673045874,-0.059788499027490616
1791049002846332700,7.518332763671875,-0.051906339824199677,0.0024578312877565622,-0.0038482677191495895
1791049002856291600,7.52829150390625,-0.038663238286972046,-0.001814677962101996,0.014708371832966805
1791049002866249500,7.53824951171875,-0.022350313141942024,-0.0015784555580466986,-0.01782240718603134
1791049002876208600,7.548208740234375,-0.020926587283611298,-0.010645187459886074,-0.10286805778741837
1791049002886166500,7.55816650390625,-0.02467072568833828,-0.015392804518342018,-0.0516757108271122
1791049002896124700,7.568124755859375,-0.014991998672485352,-0.004588892683386803,0.02268054522573948
1791049002906083600,7.57808349609375,0.017172595486044884,-0.004817658569663763,-0.04434243217110634
1791049002916041700,7.588041748046875,0.026322683319449425,-0.01583249308168888,-0.1044158861041069
1791049002925999400,7.597999267578125,0.020252807065844536,-0.015673767775297165,-0.11108497530221939
1791049002935958500,7.60795849609375,0.009738913737237453,-0.01522688940167427,-0.05747874081134796
1791049002945916400,7.61791650390625,0.01727086678147316,-0.015504923649132252,-0.03959081694483757
1791049002955874600,7.62787451171875,0.02628779597580433,-0.02063976414501667,-0.09202739596366882
1791049002965833500,7.63783349609375,0.023261645808815956,-0.023919980973005295,-0.11637401580810547
1791049002975791400,7.647791259765625,0.017541177570819855,-0.022641129791736603,-0.057261690497398376
1791049002985749500,7.65774951171875,0.007386809680610895,-0.018066352233290672,-0.01055996585637331
1791049002995708400,7.66770849609375,0.024705080315470695,-0.01848260499536991,-0.04008243978023529
1791049003005666600,7.67766650390625,0.03009318746626377,-0.025785258039832115,-0.12476403266191483
1791049003015625500,7.68762548828125,0.024357270449399948,-0.037701040506362915,-0.1202973797917366
1791049003025583600,7.69758349609375,0.017418937757611275,-0.019642677158117294,-0.009167931973934174
1791049003035541500,7.70754150390625,0.009444900788366795,-0.019691146910190582,0.02311091125011444
1791049003045500400,7.71750048828125,0.027183150872588158,-0.022340193390846252,-0.04586522653698921
1791049003055458600,7.72745849609375,0.04282123222947121,-0.022773755714297295,-0.08939885348081589
1791049003065416400,7.73741650390625,0.035298869013786316,-0.018333733081817627,-0.052800629287958145
1791049003075375600,7.747375732421875,0.022642994299530983,-0.013322995975613594,0.06078318879008293
1791049003085333500,7.75733349609375,0.020486366003751755,-0.012850817292928696,-0.01041322574019432
1791049003095291600,7.767291748046875,0.05107037350535393,-0.021631792187690735,-0.07104595005512238
1791049003105250600,7.77725048828125,0.04434642568230629,-0.01010802760720253,-0.03632524982094765
1791049003115208700,7.787208740234375,0.04126860946416855,-0.007066431455314159,0.0037787591572850943
1791049003125167600,7.797167724609375,0.04382231459021568,-0.009591907262802124,0.010715228505432606
1791049003135125800,7.807125732421875,0.025374865159392357,-0.00022956448083277792,-0.01635580323636532
1791049003145083400,7.81708349609375,0.04837419092655182,-0.0025782061275094748,-0.00013076121103949845
1791049003155042300,7.827042236328125,0.037873078137636185,0.007702927105128765,0.01360395923256874
1791049003165000400,7.83700048828125,0.04276557266712189,0.007358314003795385,0.010070477612316608
1791049003174958600,7.84695849609375,0.03820357844233513,0.008238222450017929,-0.003910852130502462
1791049003184917500,7.85691748046875,0.02973153069615364,0.012487828731536865,-0.005404352676123381
1791049003194875400,7.86687548828125,0.03660674765706062,0.010063819587230682,-0.0006101301987655461
1791049003204833500,7.87683349609375,0.012853480875492096,0.01599707640707493,0.04470568522810936
1791049003214792400,7.88679248046875,0.0025710156187415123,0.015517440624535084,0.039203859865665436
1791049003224750600,7.89675048828125,-0.006232596002519131,0.01245160959661007,-0.05077050253748894
1791049003234708500,7.90670849609375,-0.0034117756877094507,0.01540505513548851,-0.02912379615008831
1791049003244667600,7.916667724609375,-0.0054458980448544025,0.02690565027296543,0.10586784034967422
1791049003254625500,7.92662548828125,-0.003772367723286152,0.025250228121876717,0.03658783808350563
1791049003264584400,7.93658447265625,0.005911685060709715,0.012292086146771908,-0.07469075173139572
1791049003274542600,7.94654248046875,0.010693657211959362,0.0056392434053123,-0.08719775080680847
1791049003284500500,7.95650048828125,0.010034791193902493,0.015124091878533363,0.008134093135595322
1791049003294459600,7.966459716796875,0.007056311704218388,0.017011474817991257,0.04097646102309227
1791049003304417500,7.97641748046875,0.009795905090868473,0.008319182321429253,-0.0386912040412426
1791049003314375700,7.986375732421875,0.013625796884298325,0.006157228257507086,-0.03395237401127815
1791049003324334600,7.99633447265625,0.011933624744415283,0.008252603933215141,-0.022215556353330612
1791049003334292700,8.006292724609375,-0.0007661914569325745,0.0062336609698832035,-0.020446952432394028
1791049003344250600,8.016250732421875,0.017660751938819885,-0.004003796260803938,-0.018325744196772575
1791049003354209500,8.02620947265625,0.00666296249255538,0.006944458931684494,-0.06482506543397903
1791049003364167700,8.036167724609374,0.024038223549723625,-0.0034762241411954165,-0.06396566331386566
1791049003374125800,8.046125732421874,0.026211364194750786,-0.007102916948497295,-0.051484230905771255
1791049003384084700,8.056084716796875,0.016581106930971146,-0.001499625970609486,0.0009587379754520953
1791049003394042600,8.066042724609375,0.004333229269832373,-0.004319913685321808,0.025235582143068314
1791049003404001800,8.076001708984375,0.011568505316972733,-0.009673133492469788,-0.05570800229907036
1791049003413959700,8.085959716796875,0.01853187195956707,-0.004506601020693779,-0.04881947115063667
1791049003423917600,8.09591748046875,0.015353656373918056,-0.0035087147261947393,-0.004013383761048317
1791049003433876700,8.105876708984376,0.017723869532346725,-0.0034503915812820196,0.02376418560743332
1791049003443834600,8.115834716796876,0.017079118639230728,-0.006893059704452753,-0.015722770243883133
1791049003453792500,8.12579248046875,0.016773387789726257,-0.007102916948497295,-0.019713250920176506
1791049003463751700,8.135751708984374,0.02961568348109722,-0.01181990746408701,-0.014634869061410427
1791049003473709600,8.14570947265625,0.019991550594568253,-0.0059692091308534145,0.006167082116007805
1791049003483667700,8.155667724609375,0.029163211584091187,-0.007045392412692308,0.0062946476973593235
1791049003493626600,8.165626708984375,0.04047791659832001,-0.010553042404353619,-0.031093737110495567
1791049003503584500,8.17558447265625,0.04011652618646622,-0.006580937188118696,-0.02093670703470707
1791049003513543700,8.185543701171875,0.034570228308439255,-0.010885937139391899,-0.01070963591337204
1791049003523501600,8.19550146484375,0.042264364659786224,-0.008438758552074432,0.018315358087420464
1791049003533459700,8.205459716796875,0.05409066379070282,-0.010353305377066135,-0.012566657736897469
1791049003543418600,8.215418701171876,0.056893907487392426,-0.011395665816962719,-0.032952357083559036
1791049003553376800,8.225376708984374,0.06023937091231346,-0.014182930812239647,-0.032521456480026245
1791049003563334700,8.235334716796874,0.05523289367556572,-0.009093363769352436,-0.0002569950302131474
1791049003573293600,8.24529345703125,0.04561755061149597,-0.006675213109701872,0.03570633381605148
1791049003583251700,8.255251708984375,0.059063587337732315,-0.01519067119807005,-0.01648097299039364
1791049003593209900,8.2652099609375,0.06271211802959442,-0.009079248644411564,-0.041721880435943604
1791049003603168800,8.275168701171875,0.05578097328543663,-0.011688347905874252,-0.037277862429618835
1791049003613126700,8.285126708984375,0.042753588408231735,-0.011357583105564117,-0.002413090318441391
1791049003623085800,8.2950859375,0.04641170799732208,-0.008677910082042217,0.007837416604161263
1791049003633043500,8.30504345703125,0.04926688224077225,-0.008470982313156128,-0.01179034635424614
1791049003643001600,8.315001708984376,0.04138126224279404,-0.01022520661354065,-0.01044331956654787
1791049003652960500,8.32496044921875,0.03645920753479004,-0.004836300387978554,0.021637650206685066
1791049003662918700,8.334918701171874,0.02004428207874298,-0.005598230753093958,0.0133863789960742
1791049003672876500,8.34487646484375,0.02462039142847061,-0.006100503262132406,-0.011893943883478642
1791049003682835500,8.35483544921875,0.033118803054094315,-0.007791344076395035,-0.035177428275346756
1791049003692793600,8.364793701171875,0.02039768360555172,-0.007130347657948732,-0.001511610229499638
1791049003702751700,8.374751708984375,-0.0004644552827812731,-0.0062421830371022224,0.021915951743721962
1791049003712710700,8.384710693359375,0.001970206620171666,-0.01044331956654787,-0.029878536239266396
1791049003722668500,8.39466845703125,0.010603908449411392,-0.014054033905267715,-0.05031856521964073
1791049003732626700,8.404626708984376,0.009446232579648495,-0.0035084483679383993,0.026768231764435768
1791049003742585600,8.414585693359374,0.0094520915299654,-0.010491789318621159,0.03638836741447449
1791049003752543700,8.424543701171874,-0.0035140409599989653,-0.011068363673985004,-0.027465712279081345
1791049003762502700,8.434502685546875,0.0025156219489872456,-0.01679469272494316,-0.04865781590342522
1791049003772460800,8.444460693359375,0.002683667466044426,-0.014482003636658192,-0.010555438697338104
1791049003782418700,8.454418701171875,0.0021973741240799427,-0.013243633322417736,0.024759940803050995
1791049003792377600,8.464377685546875,0.01672864705324173,-0.014337659813463688,-0.00019760655413847417
1791049003802335700,8.474335693359375,0.009320797398686409,-0.01369503978639841,-0.02455541118979454
1791049003812293600,8.484293701171875,-0.0041457428596913815,-0.014767227694392204,-0.04018789902329445
1791049003822252800,8.494252685546876,0.002258626976981759,-0.010095510631799698,0.0062392535619437695
1791049003832210400,8.50421044921875,0.02070368081331253,-0.012262791395187378,0.02786598540842533
1791049003842168600,8.51416845703125,0.006822219584137201,-0.008856874890625477,0.014700915664434433
1791049003852127500,8.52412744140625,-0.0020301276817917824,-0.01757073774933815,-0.051415253430604935
1791049003862085600,8.534085693359375,-0.0030711572617292404,-0.015905197709798813,-0.028628980740904808
1791049003872044500,8.54404443359375,0.0019765980541706085,-0.010181264951825142,0.05432955175638199
1791049003882002700,8.554002685546875,0.009498164057731628,-0.012357600033283234,0.058695804327726364
1791049003891960600,8.563960693359375,0.0020064255222678185,-0.019593941047787666,-0.0465155690908432
1791049003901919500,8.57391943359375,-0.005642439238727093,-0.01835237629711628,-0.0388757586479187
1791049003911877600,8.583877685546875,0.0025688852183520794,-0.009784453548491001,0.04135942459106445
1791049003921835800,8.593835693359376,0.02310345508158207,-0.009574596770107746,0.06403597444295883
1791049003931794700,8.603794677734374,0.02256602980196476,-0.018746256828308105,-0.009131180122494698
1791049003941752600,8.613752685546874,0.007834753952920437,-0.017729196697473526,-0.05934614688158035
1791049003951710700,8.623710693359374,0.007044593803584576,-0.015719573944807053,0.038119155913591385
1791049003961669600,8.633669677734375,0.02423902601003647,-0.01381275150924921,0.040106408298015594
1791049003971627800,8.643627685546875,0.039621710777282715,-0.0182903241366148,-0.013917946256697178
1791049003981586700,8.653586669921875,0.030470291152596474,-0.021556690335273743,-0.030101176351308823
1791049003991544800,8.663544921875,0.01432434469461441,-0.017236510291695595,-0.006160690449178219
1791049004001502700,8.673502685546875,0.005330050364136696,-0.006106628105044365,-0.0018975022248923779
1791049004011461600,8.683461669921876,0.04182387888431549,-0.01661679334938526,-0.031080154702067375
1791049004021419500,8.69341943359375,0.033124931156635284,-0.010697118937969208,-0.05295829102396965
1791049004031377700,8.703377685546876,0.016936372965574265,-0.010281133465468884,0.030116623267531395
1791049004041336600,8.713336669921874,0.00532472413033247,-0.016333699226379395,-0.005080245900899172
1791049004051294500,8.72329443359375,0.015301192179322243,-0.016148077324032784,-0.04900562763214111
1791049004061252600,8.733252685546875,0.02299346588551998,-0.016234364360570908,-0.055684033781290054
1791049004071211500,8.74321142578125,0.029451897367835045,-0.01877102442085743,-0.034632813185453415
1791049004081169700,8.753169677734375,0.02538312040269375,-0.010977017693221569,0.013549097813665867
1791049004091127600,8.76312744140625,0.027538416907191277,-0.011574364267289639,0.021977204829454422
1791049004101086700,8.773086669921875,0.03044046275317669,-0.018014686182141304,-0.052148688584566116
1791049004111044600,8.783044677734376,0.03689596429467201,-0.018133729696273804,-0.0687795951962471
1791049004121003500,8.79300341796875,0.03951278701424599,-0.016946226358413696,-0.015561116859316826
1791049004130961700,8.802961669921874,0.02575516514480114,-0.014209561981260777,0.02057238668203354
1791049004140919800,8.812919921875,0.02907479554414749,-0.01955559104681015,-0.02172766625881195
1791049004150878700,8.822878662109375,0.036977726966142654,-0.01943015679717064,-0.06646184623241425
1791049004160836600,8.832836669921875,0.044263068586587906,-0.022299712523818016,-0.04163399711251259
1791049004170794800,8.842794677734375,0.029876938089728355,-0.016269251704216003,-0.006804376374930143
1791049004180753700,8.852753662109375,0.019453858956694603,-0.015154984779655933,-0.0005515406373888254
1791049004190711800,8.8627119140625,0.018483135849237442,-0.013426858931779861,0.006214220076799393
1791049004200669400,8.87266943359375,0.025178324431180954,-0.009819074533879757,-0.01925651915371418
1791049004210628900,8.88262890625,0.025802835822105408,-0.013335779309272766,-0.042932819575071335
1791049004220586500,8.89258642578125,0.006315952632576227,-0.007053115870803595,-0.047984834760427475
1791049004230545700,8.902545654296874,0.0021824603900313377,-0.007889880798757076,0.037153761833906174
1791049004240503600,8.912503662109375,0.004411792848259211,-0.0016463662032037973,0.02339906617999077
1791049004250461700,8.922461669921875,0.014472948387265205,-0.0075639099813997746,-0.0558914951980114
1791049004260420600,8.932420654296875,0.004548412747681141,-0.009412676095962524,-0.0614527091383934
1791049004270379500,8.942379638671875,-0.004698881413787603,-0.0038485340774059296,-0.0062768044881522655
1791049004280337700,8.952337646484375,-0.007929828017950058,-0.0019113506423309445,0.03301787003874779
1791049004290296600,8.962296630859376,0.003312173532322049,-0.001320927869528532,-0.007510113995522261
1791049004300254500,8.97225439453125,0.021400630474090576,-0.010729876346886158,-0.05152071639895439
1791049004310212600,8.982212646484374,0.00044075315236113966,-0.005505552981048822,-0.04160070791840553
1791049004320171500,8.992171630859374,-0.0001478054327890277,-0.00791571382433176,-0.0078571243211627
1791049004330129700,9.002129638671875,-0.009707754477858543,-0.004825914278626442,0.034027740359306335
1791049004340088600,9.012088623046875,-0.00011424961121520028,-0.0005696501466445625,0.008155664429068565
1791049004350046700,9.022046630859375,0.012034825049340725,-0.015052452683448792,-0.07436344772577286
1791049004360004600,9.032004638671875,-0.006272543221712112,-0.00815087091177702,-0.053693853318691254
1791049004369963500,9.041963623046875,-0.019817113876342773,-0.008192682638764381,0.00021544973424170166
1791049004379921700,9.051921630859376,-0.024293355643749237,-0.0018104169284924865,0.017343569546937943
1791049004389879800,9.0618798828125,-0.01623915694653988,-0.0057439059019088745,-0.031035946682095528
1791049004399838700,9.071838623046874,-0.013337376527488232,-0.003834685543552041,-0.049186453223228455
1791049004409796600,9.081796630859374,-0.024828117340803146,-0.003861849894747138,0.003242931328713894
1791049004419754800,9.091754638671874,-0.03822461888194084,0.010147443041205406,0.057074204087257385
1791049004429713700,9.101713623046875,-0.02430986613035202,-0.0023457121569663286,0.002292981604114175
1791049004439671800,9.111671875,-0.02171674743294716,-0.007715177722275257,-0.0728883221745491
1791049004449630700,9.121630615234375,-0.03434598818421364,-0.0029348034877330065,-0.05601559951901436
1791049004459588600,9.131588623046875,-0.02430613897740841,0.005273591727018356,-0.014419951476156712
1791049004469546500,9.14154638671875,-0.03159947320818901,-0.003566771512851119,0.02243686653673649
1791049004479505700,9.151505615234376,-0.03882329538464546,0.00028389296494424343,0.02449868433177471
1791049004489463600,9.161463623046876,-0.008107993751764297,-0.005538576282560825,-0.036130573600530624
1791049004499421700,9.171421630859374,-0.025125326588749886,-0.007530354429036379,-0.057009488344192505
1791049004509380600,9.181380615234374,-0.03075738064944744,-0.004502872936427593,-0.009387643076479435
1791049004519338500,9.19133837890625,-0.01215519942343235,-0.006435795221477747,0.06458591669797897
1791049004529296600,9.201296630859375,-0.014096910133957863,-0.009707221761345863,-0.010372213087975979
1791049004539255600,9.211255615234375,-0.014254037290811539,-0.01894759200513363,-0.09686636179685593
1791049004549213700,9.221213623046875,-0.016939302906394005,-0.017552629113197327,-0.04922054335474968
1791049004559172600,9.231172607421875,-0.005693572107702494,-0.010320547968149185,0.0480644628405571
1791049004569130800,9.241130859375,0.0013859090395271778,-0.013526727445423603,0.023733025416731834
1791049004579088600,9.251088623046876,0.0051537491381168365,-0.0156513974070549,-0.015500929206609726
1791049004589047600,9.261047607421874,-0.005130579695105553,-0.015528359450399876,-0.027698472142219543
1791049004599005700,9.271005615234374,-0.004481567535549402,-0.018521219491958618,-0.07544229179620743
1791049004608963800,9.2809638671875,-0.0024738102219998837,-0.011182080954313278,-0.008409197442233562
1791049004618922800,9.2909228515625,-0.006542321294546127,-0.008788431994616985,0.0555570013821125
1791049004628880600,9.300880615234375,-0.010251039639115334,-0.009634518064558506,0.009828928858041763
1791049004638838500,9.310838623046875,-0.012523248791694641,-0.009063802659511566,-0.04141561686992645
1791049004648797700,9.320797607421875,-0.01118980348110199,-0.00902571901679039,-0.05687713250517845
1791049004658755600,9.330755615234375,-0.007522630970925093,-0.0036136433482170105,0.030056968331336975
1791049004668714800,9.34071484375,-0.004519384354352951,-0.004449343308806419,0.03521551191806793
1791049004678672600,9.350672607421876,-0.0052142031490802765,-0.005107942968606949,-0.06234966218471527
1791049004688630500,9.360630615234374,-0.007051517721265554,-0.006854443810880184,-0.06049530208110809
1791049004698589400,9.37058935546875,-0.005612345412373543,0.0004854942671954632,0.013344034552574158
1791049004708547600,9.380547607421875,0.008685899898409843,-0.005816077347844839,0.027178091928362846
1791049004718505700,9.390505615234375,0.010558102279901505,-0.0075750951655209064,-0.039141543209552765
1791049004728464600,9.400464599609375,0.005803294479846954,-0.01233496330678463,-0.045518483966588974
1791049004738422500,9.410422607421875,0.0031435952987521887,-0.0057473680935800076,0.0020881847012788057
1791049004748380700,9.420380615234375,0.020651215687394142,-0.009138104505836964,-0.001913481275551021
1791049004758339600,9.430339599609376,0.029774673283100128,-0.011184210889041424,-0.03714417293667793
1791049004768297700,9.440297607421876,0.020048808306455612,-0.010496582835912704,-0.026853717863559723
1791049004778256600,9.450256591796874,0.004339620936661959,-0.01005103625357151,0.0006519418093375862
1791049004788214800,9.46021484375,0.01380795706063509,-0.010083526372909546,-0.03218723088502884
1791049004798172700,9.470172607421874,0.02550829015672207,-0.010750382207334042,-0.01865996979176998
1791049004808131600,9.480131591796875,0.014625282026827335,-0.005600627511739731,0.0068206219002604485
1791049004818089700,9.49008984375,0.011610583402216434,-0.00987153872847557,-0.006509830709546804
1791049004828048000,9.5000478515625,0.0024799355305731297,-0.008618255145847797,-0.03939560800790787
1791049004838006800,9.5100068359375,0.00657507823780179,-0.0145312724635005,-0.05227944999933243
1791049004847964400,9.51996435546875,0.013352290727198124,-0.011063836514949799,0.003829892026260495
1791049004857922600,9.529922607421875,0.018432537093758583,-0.014871624298393726,-0.029380260035395622
1791049004867881500,9.539881591796876,0.01709163561463356,-0.011626295745372772,-0.09110887348651886
1791049004877839600,9.549839599609374,0.00336144189350307,-0.014249509200453758,-0.037100762128829956
1791049004887798500,9.559798583984374,-0.0033952640369534492,-0.00034914040588773787,0.028564799576997757
1791049004897756700,9.569756591796875,0.0067628310061991215,-0.00529622845351696,0.01136850193142891
1791049004907714600,9.579714599609375,0.014548582956194878,-0.012746687978506088,-0.0965166836977005
1791049004917673500,9.589673583984375,0.009125853888690472,-0.011078749783337116,-0.04662182927131653
1791049004927631600,9.599631591796875,-0.010664362460374832,-0.0013872405979782343,0.07584549486637115
1791049004937589800,9.60958984375,0.014113422483205795,-0.0017901768442243338,0.02051699347794056
1791049004947548700,9.619548583984376,0.018561167642474174,-0.020668260753154755,-0.1265164017677307
1791049004957506600,9.629506591796876,0.018675683066248894,-0.01543488260358572,-0.09245509654283524
1791049004967464700,9.639464599609376,0.007835552096366882,-0.0009914948605000973,0.030646326020359993
1791049004977423600,9.649423583984374,-0.004454136826097965,0.0006410228670574725,0.07004353404045105
1791049004987381800,9.6593818359375,0.002582467393949628,0.0026706180069595575,0.0070344735868275166
1791049004997341700,9.669341796875,0.012682239525020123,-0.0010833739070221782,-0.04896194860339165
1791049005007299600,9.679299560546875,0.01005183532834053,-0.0023214775137603283,-0.016114255413413048
1791049005017258800,9.6892587890625,0.0033984598703682423,0.00313560594804585,0.030356574803590775
1791049005027216600,9.699216552734375,-0.008677643723785877,-0.0014988270122557878,0.022714100778102875
1791049005037174800,9.7091748046875,-0.012149606831371784,0.0032597091048955917,0.03321654349565506
1791049005047133700,9.7191337890625,0.006560697220265865,-0.002037051832303405,-0.011390073224902153
1791049005057091800,9.729091796875,0.011266502551734447,-0.0024138891603797674,-0.04176795110106468
1791049005067050800,9.73905078125,-0.004265052266418934,0.004349741153419018,0.009154882282018661
1791049005077008600,9.749008544921875,-0.016763001680374146,0.00857244897633791,0.0890507772564888
1791049005086966800,9.758966796875,0.002606702037155628,0.009525860659778118,0.06171875819563866
1791049005096925700,9.76892578125,0.01152642723172903,-0.0014330470003187656,-0.017646638676524162
1791049005106883600,9.778883544921875,0.001612011343240738,-0.007648598402738571,-0.06692763417959213
1791049005116841500,9.788841552734375,-0.009220129810273647,-0.005200620740652084,0.025406556203961372
1791049005126800600,9.798800537109376,-0.0023816649336367846,-0.0009145294898189604,0.07070399820804596
1791049005136758500,9.808758544921876,-0.0026463831309229136,-0.00021278657368384302,0.045409560203552246
1791049005146716700,9.818716552734376,-0.0024586303625255823,-0.003997670952230692,-0.007217432837933302
1791049005156675600,9.828675537109374,-0.010998322628438473,0.0012482235906645656,-0.0015214639715850353
1791049005166633700,9.8386337890625,-0.016638098284602165,-0.001919073867611587,0.025902969762682915
1791049005176592600,9.848592529296875,-0.006902114488184452,0.0011339739430695772,0.027305657044053078
1791049005186550500,9.858550537109375,-0.009897371754050255,0.003757187630981207,0.033178191632032394
1791049005196508700,9.8685087890625,-0.01576591283082962,0.0029084382113069296,0.049791790544986725
1791049005206467600,9.878467529296875,-0.013102219440042973,-0.00030306773260235786,0.005915413144975901
1791049005216425700,9.88842578125,-0.0024016385432332754,-0.002944657113403082,-0.018259963020682335
1791049005226383600,9.898383544921876,-0.01089552417397499,0.0030945930629968643,0.02196868136525154
1791049005236342800,9.9083427734375,-0.015305186621844769,0.00381444557569921,0.07844793796539307
1791049005246300700,9.91830078125,-0.006938067264854908,0.0007869640830904245,0.0296135526150465
1791049005256258800,9.9282587890625,0.0006447513005696237,-0.002019208623096347,-0.031091606244444847
1791049005266217700,9.9382177734375,-0.0005877596559002995,-0.0014394385507330298,-0.020411798730492592
1791049005276175600,9.948175537109375,-0.0003640541108325124,0.006730340886861086,0.08460170030593872
1791049005286134800,9.958134765625,0.008768191561102867,0.008077633567154408,0.04170936346054077
1791049005296092700,9.9680927734375,0.014663897454738617,-0.00021065604232717305,-0.020649617537856102
1791049005306050800,9.97805078125,0.005507150664925575,0.0015867113834246993,-0.03959055244922638
1791049005316009700,9.988009765625,0.0028671592008322477,0.006018743850290775,-0.0017752632265910506
1791049005325968000,9.9979677734375,0.0014839133946225047,0.007408115081489086,0.025356754660606384
1791049005335925500,10.007925537109376,0.008324242196977139,0.008402805775403976,-0.0064951833337545395
1791049005345884700,10.017884765625,-0.004816859494894743,0.009979397058486938,0.005594236310571432
1791049005355842600,10.027842529296874,-0.010730408132076263,0.01377972774207592,0.03008093684911728
1791049005365800700,10.03780078125,0.00126766471657902,0.006464823614805937,-0.03515425696969032
1791049005375759600,10.047759521484375,0.0054339137859642506,0.009333580732345581,-0.04188859462738037
1791049005385717500,10.057717529296875,-0.003777693957090378,0.011686749756336212,-0.013889983296394348
1791049005395676700,10.0676767578125,-0.011579690501093864,0.013983460143208504,0.04604871943593025
1791049005405634600,10.077634521484375,-0.008843292482197285,0.006897587329149246,-0.03435211628675461
1791049005415592700,10.0875927734375,0.0056392434053123,0.006963633466511965,-0.06274300813674927
1791049005425551600,10.097551513671876,0.0020666129421442747,0.008832107298076153,-0.010540525428950787
1791049005435509800,10.107509765625,0.0033366745337843895,0.011479555629193783,0.03448207676410675
1791049005445467600,10.117467529296874,0.003867442486807704,0.0024554345291107893,-0.03328791633248329
1791049005455426800,10.1274267578125,-0.000007989483492565341,0.00046631949953734875,-0.05345257371664047
1791049005465384700,10.137384765625,0.0008996158139780164,0.006066414527595043,-0.017248228192329407
1791049005475342800,10.1473427734375,0.004856806714087725,0.008718123659491539,0.02684120088815689
1791049005485301800,10.1573017578125,0.01389957033097744,0.00219551008194685,-0.03196592256426811
1791049005495259600,10.167259765625,0.007440872024744749,0.0034296188969165087,-0.04549398273229599
1791049005505218800,10.17721875,0.00413482403382659,0.0054703992791473866,-0.013082512654364109
1791049005515176700,10.1871767578125,-0.00039707732503302395,0.005991047248244286,-0.010412427596747875
1791049005525134800,10.197134765625,0.006090116687119007,0.0006186523241922259,-0.025902703404426575
1791049005535093800,10.20709375,0.01242284756153822,0.006711698602885008,-0.02588299661874771
1791049005545051600,10.2170517578125,0.009615609422326088,0.003610979998484254,-0.013468404300510883
1791049005555009500,10.227009521484375,-0.005922870244830847,0.005343632772564888,0.004945490043610334
1791049005564968700,10.23696875,0.010755175724625587,0.004259726032614708,-0.016866864636540413
1791049005574926600,10.246926513671875,0.02689419873058796,0.003793140407651663,-0.02678101323544979
1791049005584884700,10.256884765625,0.023509852588176727,0.006809968966990709,-0.00965875294059515
1791049005594843600,10.26684375,0.027759725227952003,0.004322843160480261,0.004985437728464603
1791049005604801500,10.276801513671876,0.025249963626265526,0.006965231616050005,-0.014875618740916252
1791049005614760700,10.2867607421875,0.02297802083194256,0.007619037292897701,-0.043835099786520004
1791049005624718600,10.296718505859374,0.02737862803041935,0.007872037589550018,0.02509336918592453
1791049005634676700,10.3066767578125,0.019649067893624306,0.01715421862900257,0.036131370812654495
1791049005644635600,10.3166357421875,0.03755936026573181,0.00800040178000927,-0.022493857890367508
1791049005654593800,10.32659375,0.03033553436398506,0.008316786028444767,-0.06508152931928635
1791049005664551700,10.3365517578125,0.024500548839569092,0.01142789050936699,-0.015807991847395897
1791049005674510600,10.346510498046875,0.033129192888736725,0.015576030127704144,0.0448918417096138
1791049005684468700,10.35646875,0.03972237929701805,0.012930446304380894,0.002144643571227789
1791049005694427600,10.366427734375,0.03937004134058952,0.012835904024541378,-0.0429043248295784
1791049005704385800,10.3763857421875,0.030293723568320274,0.016410399228334427,-0.03748692199587822
1791049005714343700,10.38634375,0.02810567058622837,0.01894306391477585,0.00869229156523943
1791049005724302800,10.396302734375,0.042623359709978104,0.01967090740799904,0.006951116491109133
1791049005734260700,10.4062607421875,0.048527855426073074,0.019894612953066826,-0.005798500496894121
1791049005744218600,10.416218505859375,0.03868827223777771,0.016470851376652718,-0.03412601351737976
1791049005754177500,10.426177490234375,0.03310389071702957,0.017343835905194283,-0.04017911106348038
1791049005764135700,10.4361357421875,0.04067978635430336,0.01865038275718689,-0.038657113909721375
1791049005774093600,10.446093505859375,0.05022348836064339,0.018871426582336426,-0.013696637004613876
1791049005784052700,10.456052734375,0.054126352071762085,0.023518376052379608,0.008386827073991299
1791049005794010600,10.4660107421875,0.048835184425115585,0.01480770856142044,-0.04418157413601875
1791049005803969500,10.475969482421876,0.033487387001514435,0.01823626086115837,-0.060319267213344574
1791049005813927700,10.485927734375,0.042282477021217346,0.021871743723750114,-0.03345676138997078
1791049005823885600,10.495885498046874,0.048949964344501495,0.020774787291884422,-0.025595374405384064
1791049005833844700,10.5058447265625,0.0397157222032547,0.02129543572664261,-0.020916467532515526
1791049005843802600,10.515802734375,0.028266258537769318,0.015751799568533897,-0.0668402835726738
1791049005853760800,10.5257607421875,0.02286510169506073,0.020122312009334564,-0.06800195574760437
1791049005863719700,10.5357197265625,0.033361952751874924,0.021196898072957993,-0.016455406323075294
1791049005873677800,10.545677734375,0.03795750066637993,0.022780412808060646,-0.008329568430781364
1791049005883635700,10.5556357421875,0.032586973160505295,0.02160329557955265,-0.06810475140810013
1791049005893594600,10.5655947265625,0.028051340952515602,0.020440826192498207,-0.07077989727258682
1791049005903552800,10.575552734375,0.016516659408807755,0.024393489584326744,-0.03412068635225296
1791049005913511700,10.58551171875,0.02370985597372055,0.02876320481300354,-0.01943308673799038
1791049005923469800,10.5954697265625,0.033606164157390594,0.024045148864388466,-0.04760826379060745
1791049005933427500,10.605427490234375,0.024210797622799873,0.02509496733546257,-0.07272081077098846
1791049005943387000,10.615386962890625,0.019470637664198875,0.02780553139746189,-0.04315599426627159
1791049005953344500,10.625344482421875,0.02671683207154274,0.03013952635228634,-0.026020415127277374
1791049005963302700,10.635302734375,0.03345489501953125,0.027348266914486885,-0.0557096004486084
1791049005973261600,10.645261474609375,0.03164368122816086,0.028973594307899475,-0.0546288900077343
1791049005983219700,10.6552197265625,0.018138524144887924,0.03320375829935074,-0.032398153096437454
1791049005993178600,10.6651787109375,0.024339694529771805,0.03392121568322182,-0.022908244282007217
1791049006003136500,10.675136474609374,0.021261079236865044,0.03365889564156532,-0.052015531808137894
1791049006013094700,10.6850947265625,0.011001517996191978,0.032040223479270935,-0.02419481799006462
1791049006023053600,10.695053466796875,-0.002921221312135458,0.03813167288899422,-0.010668090544641018
1791049006033011700,10.70501171875,0.004257062915712595,0.03744351118803024,-0.008952216245234013
1791049006042969600,10.714969482421875,0.00509968725964427,0.037214744836091995,-0.03720729053020477
1791049006052928800,10.7249287109375,0.009047024883329868,0.03597264736890793,-0.037993453443050385
1791049006062886700,10.73488671875,-0.002981142606586218,0.0419306717813015,0.005095958709716797
1791049006072844800,10.7448447265625,0.001449292292818427,0.04012824594974518,-0.0013379721203818917
1791049006082803700,10.7548037109375,0.0017025588313117623,0.038035798817873,-0.046610910445451736
1791049006092761900,10.764761962890624,0.005851497408002615,0.04537360742688179,-0.0010018812026828527
1791049006102720800,10.774720703125,-0.000028762138754245825,0.044984251260757446,0.019087407737970352
1791049006112678700,10.7846787109375,-0.002689792774617672,0.03994368761777878,-0.01948714815080166
1791049006122636800,10.79463671875,-0.0068243504501879215,0.040890708565711975,-0.05130899325013161
1791049006132595700,10.804595703125,-0.0037292244378477335,0.04333096370100975,-0.008674981072545052
1791049006142553600,10.8145537109375,0.008903213776648045,0.044801026582717896,0.01990952529013157
1791049006152511500,10.824511474609375,0.01709589548408985,0.043523240834474564,0.008709602057933807
1791049006162470700,10.834470703125,0.0016857809387147427,0.04289420321583748,-0.036083437502384186
1791049006172428500,10.844428466796876,-0.012874785810709,0.04368835687637329,-0.027957331389188766
1791049006182386700,10.85438671875,-0.007172957994043827,0.047993358224630356,0.018316956236958504
1791049006192345600,10.864345703125,-0.004382231738418341,0.04554032161831856,0.01016714982688427
1791049006202303700,10.8743037109375,-0.0057409764267504215,0.04382124915719032,-0.012056662701070309
1791049006212262700,10.8842626953125,-0.006449643522500992,0.04380181059241295,0.0011922972043976188
1791049006222220500,10.894220458984375,-0.013529657386243343,0.047935567796230316,0.008028099313378334
1791049006232178700,10.9041787109375,0.00253479671664536,0.04611023887991905,0.01076929084956646
1791049006242137600,10.9141376953125,0.012464659288525581,0.041255827993154526,-0.008205732330679893
1791049006252095700,10.924095703125,0.007278685458004475,0.047195740044116974,0.013848171569406986
1791049006262053600,10.9340537109375,0.005303418729454279,0.044126447290182114,0.00703900121152401
1791049006272012800,10.9440126953125,0.004081028047949076,0.044260937720537186,-0.031690020114183426
1791049006281970700,10.953970703125,0.012045477516949177,0.044808484613895416,0.0018495653057470918
1791049006291928600,10.963928466796874,0.019037073478102684,0.04806046932935715,0.02202114649116993
1791049006301887700,10.9738876953125,0.02869982086122036,0.043958935886621475,0.03719770163297653
1791049006311845600,10.983845703125,0.024930650368332863,0.04289020970463753,-0.01702186092734337
1791049006321804800,10.9938046875,0.01674063131213188,0.04126807674765587,-0.02034734934568405
1791049006331762400,11.003762451171875,0.013824469409883022,0.04845461621880531,0.023747939616441727
1791049006341720600,11.013720458984375,0.02448110841214657,0.042810846120119095,0.006966829299926758
1791049006351679500,11.023679443359375,0.03327726200222969,0.046423159539699554,-0.017942514270544052
1791049006361637600,11.0336376953125,0.03110332414507866,0.039441682398319244,-0.007114901207387447
1791049006371595500,11.043595458984376,0.020261328667402267,0.045762695372104645,0.0299078319221735
1791049006381554700,11.0535546875,0.028869997709989548,0.03892769291996956,-0.022412098944187164
1791049006391512600,11.0635126953125,0.03610340878367424,0.035040274262428284,-0.06539178639650345
1791049006401471500,11.073471435546875,0.03669889271259308,0.03386502340435982,0.004275971557945013
1791049006411429600,11.0834296875,0.021825935691595078,0.0393679104745388,0.01817101426422596
1791049006421387800,11.0933876953125,0.03346981108188629,0.035590749233961105,-0.014794658869504929
1791049006431346700,11.1033466796875,0.045048169791698456,0.029687587171792984,-0.05632266029715538
1791049006441304600,11.1133046875,0.042334672063589096,0.03741315379738808,0.02316657267510891
1791049006451262700,11.1232626953125,0.04362550750374794,0.028737371787428856,0.01769004762172699
1791049006461221600,11.1332216796875,0.04349794238805771,0.029356824234128,-0.03365356847643852
1791049006471179800,11.1431796875,0.040757548063993454,0.02617434598505497,-0.006937001831829548
1791049006481137700,11.1531376953125,0.04066114500164986,0.027029220014810562,0.018269818276166916
1791049006491096800,11.163096923828125,0.05335376784205437,0.02635197900235653,0.00811784714460373
1791049006501054500,11.173054443359375,0.05481983721256256,0.019123094156384468,-0.046366166323423386
1791049006511013600,11.183013671875,0.026991404592990875,0.024997228756546974,0.014999722130596638
1791049006520971500,11.192971435546875,0.024867532774806023,0.0228592436760664,0.05561692267656326
1791049006530929700,11.2029296875,0.040704019367694855,0.0234624482691288,-0.013258281163871288
1791049006540888600,11.212888671875,0.043892621994018555,0.02100621536374092,-0.03718997910618782
1791049006550846500,11.222846435546876,0.038111165165901184,0.02232741005718708,0.009350358508527279
1791049006560804600,11.2328046875,0.021318605169653893,0.026332538574934006,0.0798889696598053
1791049006570763500,11.242763427734374,0.03626745939254761,0.023802535608410835,0.03743578866124153
1791049006580721700,11.2527216796875,0.04668121784925461,0.024565264582633972,-0.03972823917865753
1791049006590679600,11.262679443359374,0.04842185974121094,0.022956980392336845,-0.024694427847862244
1791049006600638700,11.272638671875,0.02948705106973648,0.032287631183862686,0.07386783510446548
1791049006610596600,11.2825966796875,0.03653084486722946,0.02990809828042984,0.10732672363519669
1791049006620555500,11.292555419921875,0.03773326426744461,0.032932914793491364,0.01992443948984146
1791049006630513700,11.302513671875,0.039074964821338654,0.029050027951598167,-0.021433653309941292
1791049006640471800,11.312471923828125,0.03377687186002731,0.03278617560863495,0.013079316355288029
1791049006650430700,11.3224306640625,0.03463653847575188,0.03942304104566574,0.08515564352273941
1791049006660388600,11.332388671875,0.03846216946840286,0.0367678664624691,0.06667303293943405
1791049006670346800,11.3423466796875,0.04025660827755928,0.03707599639892578,0.008009723387658596
1791049006680305700,11.3523056640625,0.03868188336491585,0.03524027764797211,0.016340624541044235
1791049006690263800,11.362263916015625,0.02925003133714199,0.04261457175016403,0.03858840465545654
1791049006700222700,11.37222265625,0.020719127729535103,0.04289766773581505,0.06695239990949631
1791049006710180900,11.382180908203125,0.02743908204138279,0.044733647257089615,0.04218979924917221
1791049006720138500,11.392138427734375,0.026677949354052544,0.04543272778391838,0.024599619209766388
1791049006730097400,11.402097412109375,0.03803127259016037,0.04315466061234474,0.018939869478344917
1791049006740055600,11.4120556640625,0.022541262209415436,0.04562527686357498,0.017552629113197327
1791049006750013700,11.422013671875,0.012913402169942856,0.045166678726673126,0.041561026126146317
1791049006759972600,11.43197265625,0.02227095142006874,0.04415041580796242,0.01924826204776764
1791049006769930500,11.441930419921874,0.028611404821276665,0.046604253351688385,-0.024958079680800438
1791049006779888600,11.451888671875,0.015733156353235245,0.04459197074174881,-0.00042823629337362945
1791049006789847600,11.46184765625,0.007472829893231392,0.050452522933483124,0.04517999663949013
1791049006799805700,11.4718056640625,0.008837167173624039,0.04740453511476517,0.028922460973262787
1791049006809764600,11.4817646484375,0.014976019971072674,0.045398641377687454,-0.03834366053342819
1791049006819722800,11.49172265625,0.013769874349236488,0.04373682662844658,-0.02851419895887375
1791049006829680600,11.5016806640625,0.001198688754811883,0.04679946228861809,0.00020532972121145576
1791049006839639600,11.5116396484375,-0.0021169467363506556,0.04489157348871231,-0.02521427720785141
1791049006849597700,11.52159765625,-0.010602843016386032,0.04730413109064102,-0.04773662984371185
1791049006859555800,11.531555908203124,-0.003469566348940134,0.04735260084271431,-0.02046399563550949
1791049006869514800,11.5415146484375,-0.010907242074608803,0.051000598818063736,0.004791825544089079
1791049006879472600,11.55147265625,-0.010915231890976429,0.04717949777841568,-0.021638715639710426
1791049006889430800,11.5614306640625,-0.014229802414774895,0.04487239941954613,-0.04132933169603348
1791049006899389700,11.5713896484375,-0.018425611779093742,0.04746019467711449,-0.03122822754085064
1791049006909347600,11.58134765625,-0.014701981097459793,0.04388010501861572,-0.021640580147504807
1791049006919306800,11.591306640625,-0.015324095264077187,0.04211469739675522,-0.05270182713866234
1791049006929264600,11.6012646484375,-0.021096762269735336,0.04259007051587105,-0.061591457575559616
1791049006939222500,11.611222412109376,-0.019569972530007362,0.04465588554739952,-0.0002966761530842632
1791049006949181400,11.621181396484374,-0.015419170260429382,0.04170270636677742,-0.0016932378057390451
1791049006959139600,11.6311396484375,-0.004056793171912432,0.038237400352954865,-0.032285500317811966
1791049006969097700,11.64109765625,-0.006579872220754623,0.0378003753721714,-0.04761412367224693
1791049006979056600,11.651056640625,-0.0009803095599636436,0.03441070392727852,-0.013002617284655571
1791049006989014500,11.6610146484375,-0.003734284546226263,0.03623763099312782,0.01745782047510147
1791049006998973700,11.6709736328125,-0.00020532972121145576,0.03385703265666962,-0.014423680491745472
1791049007008931600,11.680931640625,-0.0009749832679517567,0.03212651237845421,-0.05606699734926224
1791049007018889700,11.6908896484375,0.0037854171823710203,0.036256540566682816,-0.018496718257665634
1791049007028848600,11.7008486328125,0.002406165935099125,0.038482144474983215,0.042692337185144424
1791049007038806800,11.710806884765624,0.007863782346248627,0.03277206048369408,0.004203533288091421
1791049007048764700,11.7207646484375,0.015083079226315022,0.03217577934265137,-0.03636226803064346
1791049007058723600,11.7307236328125,0.040585510432720184,0.025558888912200928,-0.05638684332370758
1791049007068681700,11.740681640625,0.04663754254579544,0.02418496459722519,-0.027773307636380196
1791049007078639900,11.750639892578125,0.044549889862537384,0.02015959657728672,0.03322266787290573
1791049007088598800,11.760598876953125,0.036913275718688965,0.02256389893591404,0.030970964580774307
1791049007098556700,11.770556640625,0.06339868158102036,0.014916631393134594,-0.016868462786078453
1791049007108515800,11.780515869140626,0.09257760643959045,0.011255317367613316,-0.0011851066956296563
1791049007118473500,11.790473388671876,0.08647710084915161,0.013909956440329552,0.032576318830251694
1791049007128431600,11.800431640625,0.07875872403383255,0.017429323866963387,0.07413281500339508
1791049007138390500,11.810390625,0.06841740757226944,0.017654893919825554,0.07695762813091278
1791049007148348700,11.8203486328125,0.0880022943019867,0.01613289676606655,0.0571218766272068
1791049007158306600,11.830306640625,0.09038235992193222,0.016084959730505943,0.047396544367074966
